X1,subid,list,game.order,trial.num,word,leftpic,rightpic,game,trial.type,leftpic.type,rightpic.type,side.chosen,pic.chosen,response,date,timestamp,rt,response_numeric
1,1,2,4,1,cat_control,cat_control,cat_foil,implicature,unambiguous,target,distractor,L,cat_control,Y,7/23/2015,12:17:00,1.315,1
2,1,2,4,2,bicycle_control,bicycle_foil,bicycle_control,implicature,unambiguous,distractor,target,R,bicycle_control,Y,7/23/2015,12:17:00,1.429,1
3,1,2,4,3,cup_control,cup_foil,cup_control,implicature,unambiguous,distractor,target,R,cup_control,Y,7/23/2015,12:17:00,0.915,1
4,1,2,4,4,teddybear_control,teddybear_foil,teddybear_control,implicature,unambiguous,distractor,target,R,teddybear_control,Y,7/23/2015,12:17:00,0.964,1
5,1,2,4,5,bird_control,bird_foil,bird_control,implicature,unambiguous,distractor,target,R,bird_control,Y,7/23/2015,12:17:00,0.724,1
6,1,2,4,6,apple_implic,apple_implic,apple_control,implicature,implicature,target,distractor,L,apple_implic,Y,7/23/2015,12:17:00,0.692,1
7,1,2,4,7,dog_control,dog_control,dog_foil,implicature,unambiguous,target,distractor,L,dog_control,Y,7/23/2015,12:17:00,0.812,1
8,1,2,4,8,cookie_control,cookie_foil,cookie_control,implicature,unambiguous,distractor,target,R,cookie_control,Y,7/23/2015,12:17:00,0.685,1
9,1,2,4,9,banana_control,banana_control,banana_foil,implicature,unambiguous,target,distractor,L,banana_control,Y,7/23/2015,12:17:00,0.827,1
10,1,2,4,10,flower_implic,flower_implic,flower_control,implicature,implicature,target,distractor,L,flower_implic,Y,7/23/2015,12:17:00,0.817,1
11,1,2,4,11,car_control,car_foil,car_control,implicature,unambiguous,distractor,target,R,car_control,Y,7/23/2015,12:17:00,0.731,1
12,1,2,4,12,lamp_control,lamp_foil,lamp_control,implicature,unambiguous,distractor,target,R,lamp_control,Y,7/23/2015,12:17:00,0.767,1
13,1,2,4,13,apple_implic,apple_implic,apple_control,implicature,implicature,target,distractor,L,apple_implic,Y,7/23/2015,12:17:00,0.662,1
14,1,2,4,14,dog_implic,dog_control,dog_implic,implicature,implicature,distractor,target,L,dog_control,N,7/23/2015,12:17:00,0.684,0
15,1,2,4,15,cup_implic,cup_implic,cup_control,implicature,implicature,target,distractor,L,cup_implic,Y,7/23/2015,12:17:00,0.625,1
16,1,2,4,16,teddybear_control,teddybear_foil,teddybear_control,implicature,unambiguous,distractor,target,R,teddybear_control,Y,7/23/2015,12:17:00,0.665,1
17,1,2,4,17,bicycle_implic,bicycle_implic,bicycle_control,implicature,implicature,target,distractor,L,bicycle_implic,Y,7/23/2015,12:17:00,0.686,1
18,1,2,4,18,flower_implic,flower_implic,flower_control,implicature,implicature,target,distractor,L,flower_implic,Y,7/23/2015,12:17:00,0.863,1
19,1,2,4,19,cat_implic,cat_implic,cat_control,implicature,implicature,target,distractor,L,cat_implic,Y,7/23/2015,12:17:00,0.629,1
20,1,2,4,20,car_control,car_control,car_foil,implicature,unambiguous,target,distractor,L,car_control,Y,7/23/2015,12:17:00,0.642,1
21,1,2,4,21,lamp_implic,lamp_implic,lamp_control,implicature,implicature,target,distractor,L,lamp_implic,Y,7/23/2015,12:17:00,0.653,1
22,1,2,4,22,banana_implic,banana_control,banana_implic,implicature,implicature,distractor,target,L,banana_control,N,7/23/2015,12:17:00,0.626,0
23,1,2,4,23,bird_control,bird_control,bird_foil,implicature,unambiguous,target,distractor,L,bird_control,Y,7/23/2015,12:17:00,0.585,1
24,1,2,4,24,cookie_control,cookie_control,cookie_foil,implicature,unambiguous,target,distractor,L,cookie_control,Y,7/23/2015,12:17:00,0.609,1
25,1,2,4,25,dog_control,dog_foil,dog_control,implicature,unambiguous,distractor,target,R,dog_control,Y,7/23/2015,12:17:00,0.592,1
26,1,2,4,26,lamp_implic,lamp_implic,lamp_control,implicature,implicature,target,distractor,L,lamp_implic,Y,7/23/2015,12:17:00,0.666,1
27,1,2,4,27,cookie_control,cookie_foil,cookie_control,implicature,unambiguous,distractor,target,R,cookie_control,Y,7/23/2015,12:17:00,0.625,1
28,1,2,4,28,car_implic,car_implic,car_control,implicature,implicature,target,distractor,R,car_control,N,7/23/2015,12:17:00,0.611,0
29,1,2,4,29,cup_control,cup_control,cup_foil,implicature,unambiguous,target,distractor,L,cup_control,Y,7/23/2015,12:17:00,0.624,1
30,1,2,4,30,bicycle_control,bicycle_foil,bicycle_control,implicature,unambiguous,distractor,target,R,bicycle_control,Y,7/23/2015,12:17:00,0.719,1
31,1,2,4,31,teddybear_implic,teddybear_control,teddybear_implic,implicature,implicature,distractor,target,R,teddybear_implic,Y,7/23/2015,12:17:00,1.087,1
32,1,2,4,32,flower_control,flower_control,flower_foil,implicature,unambiguous,target,distractor,L,flower_control,Y,7/23/2015,12:17:00,0.706,1
33,1,2,4,33,cat_implic,cat_control,cat_implic,implicature,implicature,distractor,target,L,cat_control,N,7/23/2015,12:17:00,0.675,0
34,1,2,4,34,apple_control,apple_control,apple_foil,implicature,unambiguous,target,distractor,L,apple_control,Y,7/23/2015,12:17:00,0.587,1
35,1,2,4,35,banana_implic,banana_control,banana_implic,implicature,implicature,distractor,target,L,banana_control,N,7/23/2015,12:17:00,0.688,0
36,1,2,4,36,bird_implic,bird_implic,bird_control,implicature,implicature,target,distractor,L,bird_implic,Y,7/23/2015,12:17:00,0.625,1
37,1,2,4,37,teddybear_implic,teddybear_control,teddybear_implic,implicature,implicature,distractor,target,L,teddybear_control,N,7/23/2015,12:17:00,0.568,0
38,1,2,4,38,cup_control,cup_control,cup_foil,implicature,unambiguous,target,distractor,L,cup_control,Y,7/23/2015,12:17:00,0.583,1
39,1,2,4,39,car_control,car_control,car_foil,implicature,unambiguous,target,distractor,L,car_control,Y,7/23/2015,12:17:00,0.64,1
40,1,2,4,40,banana_control,banana_control,banana_foil,implicature,unambiguous,target,distractor,L,banana_control,Y,7/23/2015,12:17:00,0.673,1
41,1,2,4,41,lamp_control,lamp_control,lamp_foil,implicature,unambiguous,target,distractor,L,lamp_control,Y,7/23/2015,12:17:00,0.631,1
42,1,2,4,42,apple_control,apple_control,apple_foil,implicature,unambiguous,target,distractor,L,apple_control,Y,7/23/2015,12:17:00,0.633,1
43,1,2,4,43,cookie_implic,cookie_implic,cookie_control,implicature,implicature,target,distractor,L,cookie_implic,Y,7/23/2015,12:17:00,0.595,1
44,1,2,4,44,cat_implic,cat_control,cat_implic,implicature,implicature,distractor,target,L,cat_control,N,7/23/2015,12:17:00,0.588,0
45,1,2,4,45,bird_control,bird_foil,bird_control,implicature,unambiguous,distractor,target,L,bird_foil,N,7/23/2015,12:17:00,0.591,0
46,1,2,4,46,flower_control,flower_foil,flower_control,implicature,unambiguous,distractor,target,R,flower_control,Y,7/23/2015,12:17:00,0.967,1
47,1,2,4,47,dog_implic,dog_implic,dog_control,implicature,implicature,target,distractor,R,dog_control,N,7/23/2015,12:17:00,0.781,0
48,1,2,4,48,bicycle_control,bicycle_foil,bicycle_control,implicature,unambiguous,distractor,target,R,bicycle_control,Y,7/23/2015,12:17:00,0.751,1
49,1,2,4,49,bird_implic,bird_implic,bird_control,implicature,implicature,target,distractor,L,bird_implic,Y,7/23/2015,12:17:00,0.722,1
50,1,2,4,50,flower_implic,flower_implic,flower_control,implicature,implicature,target,distractor,L,flower_implic,Y,7/23/2015,12:17:00,0.765,1
51,1,2,4,51,car_control,car_foil,car_control,implicature,unambiguous,distractor,target,R,car_control,Y,7/23/2015,12:17:00,0.681,1
52,1,2,4,52,lamp_implic,lamp_implic,lamp_control,implicature,implicature,target,distractor,L,lamp_implic,Y,7/23/2015,12:17:00,0.736,1
53,1,2,4,53,bicycle_implic,bicycle_control,bicycle_implic,implicature,implicature,distractor,target,L,bicycle_control,N,7/23/2015,12:17:00,0.786,0
54,1,2,4,54,dog_implic,dog_control,dog_implic,implicature,implicature,distractor,target,L,dog_control,N,7/23/2015,12:17:00,0.804,0
55,1,2,4,55,teddybear_implic,teddybear_control,teddybear_implic,implicature,implicature,distractor,target,L,teddybear_control,N,7/23/2015,12:17:00,0.649,0
56,1,2,4,56,cookie_control,cookie_foil,cookie_control,implicature,unambiguous,distractor,target,R,cookie_control,Y,7/23/2015,12:17:00,0.698,1
57,1,2,4,57,cat_implic,cat_control,cat_implic,implicature,implicature,distractor,target,L,cat_control,N,7/23/2015,12:17:00,0.885,0
58,1,2,4,58,apple_control,apple_control,apple_foil,implicature,unambiguous,target,distractor,L,apple_control,Y,7/23/2015,12:17:00,0.598,1
59,1,2,4,59,cup_implic,cup_implic,cup_control,implicature,implicature,target,distractor,L,cup_implic,Y,7/23/2015,12:17:00,0.728,1
60,1,2,4,60,banana_control,banana_foil,banana_control,implicature,unambiguous,distractor,target,R,banana_control,Y,7/23/2015,12:17:00,0.704,1
61,1,2,4,61,lamp_control,lamp_control,lamp_foil,implicature,unambiguous,target,distractor,L,lamp_control,Y,7/23/2015,12:17:00,0.709,1
62,1,2,4,62,dog_implic,dog_implic,dog_control,implicature,implicature,target,distractor,L,dog_implic,Y,7/23/2015,12:17:00,0.578,1
63,1,2,4,63,bird_control,bird_foil,bird_control,implicature,unambiguous,distractor,target,R,bird_control,Y,7/23/2015,12:17:00,0.64,1
64,1,2,4,64,car_control,car_control,car_foil,implicature,unambiguous,target,distractor,L,car_control,Y,7/23/2015,12:17:00,0.627,1
65,1,2,4,65,flower_implic,flower_implic,flower_control,implicature,implicature,target,distractor,L,flower_implic,Y,7/23/2015,12:17:00,0.655,1
66,1,2,4,66,banana_control,banana_control,banana_foil,implicature,unambiguous,target,distractor,L,banana_control,Y,7/23/2015,12:17:00,0.64,1
67,1,2,4,67,cat_implic,cat_control,cat_implic,implicature,implicature,distractor,target,L,cat_control,N,7/23/2015,12:17:00,0.556,0
68,1,2,4,68,cup_control,cup_control,cup_foil,implicature,unambiguous,target,distractor,L,cup_control,Y,7/23/2015,12:17:00,0.496,1
69,1,2,4,69,apple_implic,apple_control,apple_implic,implicature,implicature,distractor,target,L,apple_control,N,7/23/2015,12:17:00,0.542,0
70,1,2,4,70,cookie_control,cookie_foil,cookie_control,implicature,unambiguous,distractor,target,R,cookie_control,Y,7/23/2015,12:17:00,0.909,1
71,1,2,4,71,teddybear_control,teddybear_control,teddybear_foil,implicature,unambiguous,target,distractor,L,teddybear_control,Y,7/23/2015,12:17:00,0.564,1
72,1,2,4,72,bicycle_implic,bicycle_implic,bicycle_control,implicature,implicature,target,distractor,L,bicycle_implic,Y,7/23/2015,12:17:00,0.786,1
73,1,2,4,73,cat_implic,cat_control,cat_implic,implicature,implicature,distractor,target,L,cat_control,N,7/23/2015,12:17:00,0.64,0
74,1,2,4,74,cup_control,cup_foil,cup_control,implicature,unambiguous,distractor,target,R,cup_control,Y,7/23/2015,12:17:00,0.64,1
75,1,2,4,75,car_implic,car_implic,car_control,implicature,implicature,target,distractor,L,car_implic,Y,7/23/2015,12:17:00,0.672,1
76,1,2,4,76,flower_control,flower_control,flower_foil,implicature,unambiguous,target,distractor,L,flower_control,Y,7/23/2015,12:17:00,0.705,1
77,1,2,4,77,cookie_control,cookie_control,cookie_foil,implicature,unambiguous,target,distractor,L,cookie_control,Y,7/23/2015,12:17:00,0.638,1
78,1,2,4,78,teddybear_implic,teddybear_implic,teddybear_control,implicature,implicature,target,distractor,R,teddybear_control,N,7/23/2015,12:17:00,0.627,0
79,1,2,4,79,bird_implic,bird_implic,bird_control,implicature,implicature,target,distractor,L,bird_implic,Y,7/23/2015,12:17:00,0.632,1
80,1,2,4,80,dog_control,dog_foil,dog_control,implicature,unambiguous,distractor,target,R,dog_control,Y,7/23/2015,12:17:00,0.654,1
81,1,2,4,81,bicycle_control,bicycle_foil,bicycle_control,implicature,unambiguous,distractor,target,R,bicycle_control,Y,7/23/2015,12:17:00,0.648,1
82,1,2,4,82,lamp_control,lamp_control,lamp_foil,implicature,unambiguous,target,distractor,L,lamp_control,Y,7/23/2015,12:17:00,0.614,1
83,1,2,4,83,apple_implic,apple_implic,apple_control,implicature,implicature,target,distractor,L,apple_implic,Y,7/23/2015,12:17:00,0.743,1
84,1,2,4,84,banana_control,banana_foil,banana_control,implicature,unambiguous,distractor,target,R,banana_control,Y,7/23/2015,12:17:00,0.675,1
85,1,2,4,85,car_control,car_control,car_foil,implicature,unambiguous,target,distractor,L,car_control,Y,7/23/2015,12:17:00,0.534,1
86,1,2,4,86,apple_implic,apple_control,apple_implic,implicature,implicature,distractor,target,L,apple_control,N,7/23/2015,12:17:00,0.607,0
87,1,2,4,87,banana_implic,banana_implic,banana_control,implicature,implicature,target,distractor,L,banana_implic,Y,7/23/2015,12:17:00,0.546,1
88,1,2,4,88,cat_control,cat_control,cat_foil,implicature,unambiguous,target,distractor,L,cat_control,Y,7/23/2015,12:17:00,0.5,1
89,1,2,4,89,cookie_implic,cookie_implic,cookie_control,implicature,implicature,target,distractor,L,cookie_implic,Y,7/23/2015,12:17:00,0.556,1
90,1,2,4,90,dog_implic,dog_implic,dog_control,implicature,implicature,target,distractor,L,dog_implic,Y,7/23/2015,12:17:00,0.563,1
91,1,2,4,91,flower_control,flower_control,flower_foil,implicature,unambiguous,target,distractor,L,flower_control,Y,7/23/2015,12:17:00,0.645,1
92,1,2,4,92,bird_implic,bird_implic,bird_control,implicature,implicature,target,distractor,L,bird_implic,Y,7/23/2015,12:17:00,0.622,1
93,1,2,4,93,teddybear_implic,teddybear_control,teddybear_implic,implicature,implicature,distractor,target,L,teddybear_control,N,7/23/2015,12:17:00,0.606,0
94,1,2,4,94,bicycle_implic,bicycle_control,bicycle_implic,implicature,implicature,distractor,target,L,bicycle_control,N,7/23/2015,12:17:00,0.499,0
95,1,2,4,95,lamp_implic,lamp_control,lamp_implic,implicature,implicature,distractor,target,R,lamp_implic,Y,7/23/2015,12:17:00,0.598,1
96,1,2,4,96,cup_control,cup_foil,cup_control,implicature,unambiguous,distractor,target,R,cup_control,Y,7/23/2015,12:17:00,0.687,1
97,1,2,4,97,teddybear_control,teddybear_control,teddybear_foil,implicature,unambiguous,target,distractor,L,teddybear_control,Y,7/23/2015,12:17:00,0.607,1
98,1,2,4,98,cup_implic,cup_implic,cup_control,implicature,implicature,target,distractor,L,cup_implic,Y,7/23/2015,12:17:00,0.564,1
99,1,2,4,99,bird_control,bird_foil,bird_control,implicature,unambiguous,distractor,target,R,bird_control,Y,7/23/2015,12:17:00,0.655,1
100,1,2,4,100,dog_implic,dog_control,dog_implic,implicature,implicature,distractor,target,L,dog_control,N,7/23/2015,12:17:00,0.658,0
101,1,2,4,101,bicycle_implic,bicycle_control,bicycle_implic,implicature,implicature,distractor,target,L,bicycle_control,N,7/23/2015,12:17:00,0.564,0
102,1,2,4,102,cat_implic,cat_control,cat_implic,implicature,implicature,distractor,target,L,cat_control,N,7/23/2015,12:17:00,0.532,0
103,1,2,4,103,car_implic,car_implic,car_control,implicature,implicature,target,distractor,L,car_implic,Y,7/23/2015,12:17:00,0.566,1
104,1,2,4,104,cookie_implic,cookie_implic,cookie_control,implicature,implicature,target,distractor,L,cookie_implic,Y,7/23/2015,12:17:00,0.485,1
105,1,2,4,105,banana_implic,banana_control,banana_implic,implicature,implicature,distractor,target,L,banana_control,N,7/23/2015,12:17:00,1.054,0
106,1,2,4,106,lamp_control,lamp_foil,lamp_control,implicature,unambiguous,distractor,target,R,lamp_control,Y,7/23/2015,12:17:00,0.766,1
107,1,2,4,107,flower_implic,flower_implic,flower_control,implicature,implicature,target,distractor,L,flower_implic,Y,7/23/2015,12:17:00,0.576,1
108,1,2,4,108,apple_control,apple_control,apple_foil,implicature,unambiguous,target,distractor,L,apple_control,Y,7/23/2015,12:17:00,0.588,1
109,1,2,4,109,bicycle_control,bicycle_foil,bicycle_control,implicature,unambiguous,distractor,target,R,bicycle_control,Y,7/23/2015,12:17:00,0.615,1
110,1,2,4,110,cup_control,cup_foil,cup_control,implicature,unambiguous,distractor,target,R,cup_control,Y,7/23/2015,12:17:00,0.647,1
111,1,2,4,111,banana_control,banana_foil,banana_control,implicature,unambiguous,distractor,target,R,banana_control,Y,7/23/2015,12:17:00,0.648,1
112,1,2,4,112,bird_control,bird_foil,bird_control,implicature,unambiguous,distractor,target,L,bird_foil,N,7/23/2015,12:17:00,0.504,0
113,1,2,4,113,cookie_implic,cookie_implic,cookie_control,implicature,implicature,target,distractor,L,cookie_implic,Y,7/23/2015,12:17:00,0.672,1
114,1,2,4,114,lamp_control,lamp_control,lamp_foil,implicature,unambiguous,target,distractor,L,lamp_control,Y,7/23/2015,12:17:00,0.572,1
115,1,2,4,115,teddybear_implic,teddybear_control,teddybear_implic,implicature,implicature,distractor,target,L,teddybear_control,N,7/23/2015,12:17:00,0.633,0
116,1,2,4,116,car_implic,car_implic,car_control,implicature,implicature,target,distractor,R,car_control,N,7/23/2015,12:17:00,0.544,0
117,1,2,4,117,apple_implic,apple_implic,apple_control,implicature,implicature,target,distractor,R,apple_control,N,7/23/2015,12:17:00,0.595,0
118,1,2,4,118,cat_control,cat_control,cat_foil,implicature,unambiguous,target,distractor,L,cat_control,Y,7/23/2015,12:17:00,0.572,1
119,1,2,4,119,dog_implic,dog_implic,dog_control,implicature,implicature,target,distractor,L,dog_implic,Y,7/23/2015,12:17:00,0.602,1
120,1,2,4,120,flower_implic,flower_implic,flower_control,implicature,implicature,target,distractor,L,flower_implic,Y,7/23/2015,12:17:00,0.572,1
121,1,2,4,1,cup_pos,cup_pos,cup_inhib,inhibition,control,target,distractor,L,cup_pos,Y,7/23/2015,12:17:00,0.629,1
122,1,2,4,2,cup_pos,cup_inhib,cup_pos,inhibition,control,distractor,target,L,cup_inhib,N,7/23/2015,12:17:00,0.527,0
123,1,2,4,3,cup_pos,cup_pos,cup_inhib,inhibition,control,target,distractor,L,cup_pos,Y,7/23/2015,12:17:00,0.421,1
124,1,2,4,4,cup_pos,cup_pos,cup_inhib,inhibition,control,target,distractor,L,cup_pos,Y,7/23/2015,12:17:00,0.392,1
125,1,2,4,5,cup_pos,cup_pos,cup_inhib,inhibition,control,target,distractor,L,cup_pos,Y,7/23/2015,12:17:00,0.38,1
126,1,2,4,6,cup_inhib,cup_inhib,cup_pos,inhibition,inhib,target,distractor,R,cup_pos,N,7/23/2015,12:17:00,0.388,0
127,1,2,4,7,bird_pos,bird_pos,bird_inhib,inhibition,control,target,distractor,L,bird_pos,Y,7/23/2015,12:17:00,0.75,1
128,1,2,4,8,bird_pos,bird_pos,bird_inhib,inhibition,control,target,distractor,L,bird_pos,Y,7/23/2015,12:17:00,0.691,1
129,1,2,4,9,bird_pos,bird_pos,bird_inhib,inhibition,control,target,distractor,L,bird_pos,Y,7/23/2015,12:17:00,0.404,1
130,1,2,4,10,bird_pos,bird_inhib,bird_pos,inhibition,control,distractor,target,R,bird_pos,Y,7/23/2015,12:17:00,0.586,1
131,1,2,4,11,bird_pos,bird_pos,bird_inhib,inhibition,control,target,distractor,L,bird_pos,Y,7/23/2015,12:17:00,0.375,1
132,1,2,4,12,bird_pos,bird_inhib,bird_pos,inhibition,control,distractor,target,R,bird_pos,Y,7/23/2015,12:17:00,0.644,1
133,1,2,4,13,bird_inhib,bird_inhib,bird_pos,inhibition,inhib,target,distractor,L,bird_inhib,Y,7/23/2015,12:17:00,0.499,1
134,1,2,4,14,lamp_pos,lamp_pos,lamp_inhib,inhibition,control,target,distractor,R,lamp_inhib,N,7/23/2015,12:17:00,0.56,0
135,1,2,4,15,lamp_pos,lamp_pos,lamp_inhib,inhibition,control,target,distractor,L,lamp_pos,Y,7/23/2015,12:17:00,0.464,1
136,1,2,4,16,lamp_pos,lamp_pos,lamp_inhib,inhibition,control,target,distractor,L,lamp_pos,Y,7/23/2015,12:17:00,0.412,1
137,1,2,4,17,lamp_pos,lamp_inhib,lamp_pos,inhibition,control,distractor,target,R,lamp_pos,Y,7/23/2015,12:17:00,0.443,1
138,1,2,4,18,lamp_pos,lamp_inhib,lamp_pos,inhibition,control,distractor,target,R,lamp_pos,Y,7/23/2015,12:17:00,0.456,1
139,1,2,4,19,lamp_pos,lamp_inhib,lamp_pos,inhibition,control,distractor,target,R,lamp_pos,Y,7/23/2015,12:17:00,0.428,1
140,1,2,4,20,lamp_inhib,lamp_inhib,lamp_pos,inhibition,inhib,target,distractor,L,lamp_inhib,Y,7/23/2015,12:17:00,0.469,1
141,1,2,4,21,cookie_pos,cookie_inhib,cookie_pos,inhibition,control,distractor,target,L,cookie_inhib,N,7/23/2015,12:17:00,0.647,0
142,1,2,4,22,cookie_pos,cookie_inhib,cookie_pos,inhibition,control,distractor,target,R,cookie_pos,Y,7/23/2015,12:17:00,0.462,1
143,1,2,4,23,cookie_pos,cookie_pos,cookie_inhib,inhibition,control,target,distractor,L,cookie_pos,Y,7/23/2015,12:17:00,0.453,1
144,1,2,4,24,cookie_pos,cookie_inhib,cookie_pos,inhibition,control,distractor,target,R,cookie_pos,Y,7/23/2015,12:17:00,0.38,1
145,1,2,4,25,cookie_pos,cookie_pos,cookie_inhib,inhibition,control,target,distractor,L,cookie_pos,Y,7/23/2015,12:17:00,0.407,1
146,1,2,4,26,cookie_inhib,cookie_inhib,cookie_pos,inhibition,inhib,target,distractor,L,cookie_inhib,Y,7/23/2015,12:17:00,0.563,1
147,1,2,4,27,flower_pos,flower_pos,flower_inhib,inhibition,control,target,distractor,L,flower_pos,Y,7/23/2015,12:17:00,0.72,1
148,1,2,4,28,flower_pos,flower_inhib,flower_pos,inhibition,control,distractor,target,R,flower_pos,Y,7/23/2015,12:17:00,0.642,1
149,1,2,4,29,flower_pos,flower_pos,flower_inhib,inhibition,control,target,distractor,L,flower_pos,Y,7/23/2015,12:17:00,0.381,1
150,1,2,4,30,flower_pos,flower_inhib,flower_pos,inhibition,control,distractor,target,R,flower_pos,Y,7/23/2015,12:17:00,0.447,1
151,1,2,4,31,flower_pos,flower_pos,flower_inhib,inhibition,control,target,distractor,L,flower_pos,Y,7/23/2015,12:17:00,0.442,1
152,1,2,4,32,flower_pos,flower_inhib,flower_pos,inhibition,control,distractor,target,R,flower_pos,Y,7/23/2015,12:17:00,0.435,1
153,1,2,4,33,flower_inhib,flower_pos,flower_inhib,inhibition,inhib,distractor,target,R,flower_inhib,Y,7/23/2015,12:17:00,0.618,1
154,1,2,4,34,cat_pos,cat_pos,cat_inhib,inhibition,control,target,distractor,L,cat_pos,Y,7/23/2015,12:17:00,0.744,1
155,1,2,4,35,cat_pos,cat_inhib,cat_pos,inhibition,control,distractor,target,L,cat_inhib,N,7/23/2015,12:17:00,0.398,0
156,1,2,4,36,cat_pos,cat_pos,cat_inhib,inhibition,control,target,distractor,L,cat_pos,Y,7/23/2015,12:17:00,0.398,1
157,1,2,4,37,cat_pos,cat_pos,cat_inhib,inhibition,control,target,distractor,L,cat_pos,Y,7/23/2015,12:17:00,0.408,1
158,1,2,4,38,cat_pos,cat_inhib,cat_pos,inhibition,control,distractor,target,R,cat_pos,Y,7/23/2015,12:17:00,0.392,1
159,1,2,4,39,cat_inhib,cat_inhib,cat_pos,inhibition,inhib,target,distractor,L,cat_inhib,Y,7/23/2015,12:17:00,0.677,1
160,1,2,4,40,bicycle_pos,bicycle_pos,bicycle_inhib,inhibition,control,target,distractor,L,bicycle_pos,Y,7/23/2015,12:17:00,0.638,1
161,1,2,4,41,bicycle_pos,bicycle_pos,bicycle_inhib,inhibition,control,target,distractor,L,bicycle_pos,Y,7/23/2015,12:17:00,0.363,1
162,1,2,4,42,bicycle_pos,bicycle_pos,bicycle_inhib,inhibition,control,target,distractor,L,bicycle_pos,Y,7/23/2015,12:17:00,0.347,1
163,1,2,4,43,bicycle_pos,bicycle_pos,bicycle_inhib,inhibition,control,target,distractor,L,bicycle_pos,Y,7/23/2015,12:17:00,0.311,1
164,1,2,4,44,bicycle_pos,bicycle_pos,bicycle_inhib,inhibition,control,target,distractor,L,bicycle_pos,Y,7/23/2015,12:17:00,0.327,1
165,1,2,4,45,bicycle_inhib,bicycle_inhib,bicycle_pos,inhibition,inhib,target,distractor,R,bicycle_pos,N,7/23/2015,12:17:00,0.438,0
166,1,2,4,46,banana_pos,banana_pos,banana_inhib,inhibition,control,target,distractor,L,banana_pos,Y,7/23/2015,12:17:00,1.555,1
167,1,2,4,47,banana_pos,banana_pos,banana_inhib,inhibition,control,target,distractor,L,banana_pos,Y,7/23/2015,12:17:00,0.436,1
168,1,2,4,48,banana_pos,banana_inhib,banana_pos,inhibition,control,distractor,target,R,banana_pos,Y,7/23/2015,12:17:00,0.452,1
169,1,2,4,49,banana_pos,banana_pos,banana_inhib,inhibition,control,target,distractor,L,banana_pos,Y,7/23/2015,12:17:00,0.368,1
170,1,2,4,50,banana_pos,banana_inhib,banana_pos,inhibition,control,distractor,target,R,banana_pos,Y,7/23/2015,12:17:00,0.404,1
171,1,2,4,51,banana_inhib,banana_pos,banana_inhib,inhibition,inhib,distractor,target,L,banana_pos,N,7/23/2015,12:17:00,0.45,0
172,1,2,4,52,teddybear_pos,teddybear_inhib,teddybear_pos,inhibition,control,distractor,target,R,teddybear_pos,Y,7/23/2015,12:17:00,0.871,1
173,1,2,4,53,teddybear_pos,teddybear_inhib,teddybear_pos,inhibition,control,distractor,target,R,teddybear_pos,Y,7/23/2015,12:17:00,0.412,1
174,1,2,4,54,teddybear_pos,teddybear_inhib,teddybear_pos,inhibition,control,distractor,target,R,teddybear_pos,Y,7/23/2015,12:17:00,0.404,1
175,1,2,4,55,teddybear_pos,teddybear_pos,teddybear_inhib,inhibition,control,target,distractor,L,teddybear_pos,Y,7/23/2015,12:17:00,0.427,1
176,1,2,4,56,teddybear_pos,teddybear_pos,teddybear_inhib,inhibition,control,target,distractor,L,teddybear_pos,Y,7/23/2015,12:17:00,0.495,1
177,1,2,4,57,teddybear_pos,teddybear_pos,teddybear_inhib,inhibition,control,target,distractor,L,teddybear_pos,Y,7/23/2015,12:17:00,0.521,1
178,1,2,4,58,teddybear_inhib,teddybear_inhib,teddybear_pos,inhibition,inhib,target,distractor,R,teddybear_pos,N,7/23/2015,12:17:00,0.603,0
179,1,2,4,59,dog_pos,dog_inhib,dog_pos,inhibition,control,distractor,target,R,dog_pos,Y,7/23/2015,12:17:00,1.841,1
180,1,2,4,60,dog_pos,dog_pos,dog_inhib,inhibition,control,target,distractor,L,dog_pos,Y,7/23/2015,12:17:00,0.466,1
181,1,2,4,61,dog_pos,dog_inhib,dog_pos,inhibition,control,distractor,target,R,dog_pos,Y,7/23/2015,12:17:00,0.419,1
182,1,2,4,62,dog_pos,dog_inhib,dog_pos,inhibition,control,distractor,target,R,dog_pos,Y,7/23/2015,12:17:00,0.451,1
183,1,2,4,63,dog_pos,dog_pos,dog_inhib,inhibition,control,target,distractor,L,dog_pos,Y,7/23/2015,12:17:00,0.428,1
184,1,2,4,64,dog_pos,dog_pos,dog_inhib,inhibition,control,target,distractor,L,dog_pos,Y,7/23/2015,12:17:00,0.445,1
185,1,2,4,65,dog_inhib,dog_pos,dog_inhib,inhibition,inhib,distractor,target,R,dog_inhib,Y,7/23/2015,12:17:00,0.769,1
186,1,2,4,66,car_pos,car_inhib,car_pos,inhibition,control,distractor,target,R,car_pos,Y,7/23/2015,12:17:00,0.826,1
187,1,2,4,67,car_pos,car_inhib,car_pos,inhibition,control,distractor,target,R,car_pos,Y,7/23/2015,12:17:00,0.585,1
188,1,2,4,68,car_pos,car_inhib,car_pos,inhibition,control,distractor,target,R,car_pos,Y,7/23/2015,12:17:00,0.364,1
189,1,2,4,69,car_pos,car_pos,car_inhib,inhibition,control,target,distractor,L,car_pos,Y,7/23/2015,12:17:00,0.455,1
190,1,2,4,70,car_pos,car_pos,car_inhib,inhibition,control,target,distractor,L,car_pos,Y,7/23/2015,12:17:00,0.456,1
191,1,2,4,71,car_pos,car_inhib,car_pos,inhibition,control,distractor,target,R,car_pos,Y,7/23/2015,12:17:00,0.432,1
192,1,2,4,72,car_inhib,car_inhib,car_pos,inhibition,inhib,target,distractor,L,car_inhib,Y,7/23/2015,12:17:00,0.943,1
193,1,2,4,73,apple_pos,apple_pos,apple_inhib,inhibition,control,target,distractor,L,apple_pos,Y,7/23/2015,12:17:00,0.848,1
194,1,2,4,74,apple_pos,apple_pos,apple_inhib,inhibition,control,target,distractor,L,apple_pos,Y,7/23/2015,12:17:00,0.353,1
195,1,2,4,75,apple_pos,apple_inhib,apple_pos,inhibition,control,distractor,target,R,apple_pos,Y,7/23/2015,12:17:00,0.411,1
196,1,2,4,76,apple_pos,apple_pos,apple_inhib,inhibition,control,target,distractor,L,apple_pos,Y,7/23/2015,12:17:00,0.36,1
197,1,2,4,77,apple_pos,apple_pos,apple_inhib,inhibition,control,target,distractor,L,apple_pos,Y,7/23/2015,12:17:00,0.382,1
198,1,2,4,78,apple_inhib,apple_inhib,apple_pos,inhibition,inhib,target,distractor,L,apple_inhib,Y,7/23/2015,12:17:00,0.721,1
199,1,2,4,79,car_pos,car_inhib,car_pos,inhibition,control,distractor,target,R,car_pos,Y,7/23/2015,12:17:00,0.6,1
200,1,2,4,80,car_pos,car_pos,car_inhib,inhibition,control,target,distractor,L,car_pos,Y,7/23/2015,12:17:00,0.329,1
201,1,2,4,81,car_pos,car_inhib,car_pos,inhibition,control,distractor,target,R,car_pos,Y,7/23/2015,12:17:00,0.411,1
202,1,2,4,82,car_pos,car_pos,car_inhib,inhibition,control,target,distractor,L,car_pos,Y,7/23/2015,12:17:00,0.326,1
203,1,2,4,83,car_pos,car_inhib,car_pos,inhibition,control,distractor,target,R,car_pos,Y,7/23/2015,12:17:00,0.345,1
204,1,2,4,84,car_pos,car_inhib,car_pos,inhibition,control,distractor,target,L,car_inhib,N,7/23/2015,12:17:00,0.356,0
205,1,2,4,85,car_inhib,car_pos,car_inhib,inhibition,inhib,distractor,target,R,car_inhib,Y,7/23/2015,12:17:00,0.945,1
206,1,2,4,86,bird_pos,bird_inhib,bird_pos,inhibition,control,distractor,target,R,bird_pos,Y,7/23/2015,12:17:00,0.856,1
207,1,2,4,87,bird_pos,bird_pos,bird_inhib,inhibition,control,target,distractor,L,bird_pos,Y,7/23/2015,12:17:00,0.368,1
208,1,2,4,88,bird_pos,bird_pos,bird_inhib,inhibition,control,target,distractor,L,bird_pos,Y,7/23/2015,12:17:00,0.382,1
209,1,2,4,89,bird_pos,bird_inhib,bird_pos,inhibition,control,distractor,target,R,bird_pos,Y,7/23/2015,12:17:00,0.391,1
210,1,2,4,90,bird_pos,bird_inhib,bird_pos,inhibition,control,distractor,target,R,bird_pos,Y,7/23/2015,12:17:00,0.439,1
211,1,2,4,91,bird_inhib,bird_inhib,bird_pos,inhibition,inhib,target,distractor,R,bird_pos,N,7/23/2015,12:17:00,0.512,0
212,1,2,4,92,dog_pos,dog_inhib,dog_pos,inhibition,control,distractor,target,R,dog_pos,Y,7/23/2015,12:17:00,0.674,1
213,1,2,4,93,dog_pos,dog_pos,dog_inhib,inhibition,control,target,distractor,L,dog_pos,Y,7/23/2015,12:17:00,0.397,1
214,1,2,4,94,dog_pos,dog_pos,dog_inhib,inhibition,control,target,distractor,L,dog_pos,Y,7/23/2015,12:17:00,0.42,1
215,1,2,4,95,dog_pos,dog_inhib,dog_pos,inhibition,control,distractor,target,R,dog_pos,Y,7/23/2015,12:17:00,0.395,1
216,1,2,4,96,dog_pos,dog_pos,dog_inhib,inhibition,control,target,distractor,L,dog_pos,Y,7/23/2015,12:17:00,0.469,1
217,1,2,4,97,dog_pos,dog_inhib,dog_pos,inhibition,control,distractor,target,L,dog_inhib,N,7/23/2015,12:17:00,0.413,0
218,1,2,4,98,dog_inhib,dog_pos,dog_inhib,inhibition,inhib,distractor,target,R,dog_inhib,Y,7/23/2015,12:17:00,0.783,1
219,1,2,4,99,apple_pos,apple_pos,apple_inhib,inhibition,control,target,distractor,L,apple_pos,Y,7/23/2015,12:17:00,0.825,1
220,1,2,4,100,apple_pos,apple_inhib,apple_pos,inhibition,control,distractor,target,R,apple_pos,Y,7/23/2015,12:17:00,0.422,1
221,1,2,4,101,apple_pos,apple_inhib,apple_pos,inhibition,control,distractor,target,R,apple_pos,Y,7/23/2015,12:17:00,0.432,1
222,1,2,4,102,apple_pos,apple_pos,apple_inhib,inhibition,control,target,distractor,L,apple_pos,Y,7/23/2015,12:17:00,0.585,1
223,1,2,4,103,apple_pos,apple_pos,apple_inhib,inhibition,control,target,distractor,L,apple_pos,Y,7/23/2015,12:17:00,0.414,1
224,1,2,4,104,apple_inhib,apple_pos,apple_inhib,inhibition,inhib,distractor,target,R,apple_inhib,Y,7/23/2015,12:17:00,0.647,1
225,1,2,4,105,flower_pos,flower_pos,flower_inhib,inhibition,control,target,distractor,L,flower_pos,Y,7/23/2015,12:17:00,0.554,1
226,1,2,4,106,flower_pos,flower_pos,flower_inhib,inhibition,control,target,distractor,L,flower_pos,Y,7/23/2015,12:17:00,0.344,1
227,1,2,4,107,flower_pos,flower_inhib,flower_pos,inhibition,control,distractor,target,R,flower_pos,Y,7/23/2015,12:17:00,0.403,1
228,1,2,4,108,flower_pos,flower_pos,flower_inhib,inhibition,control,target,distractor,L,flower_pos,Y,7/23/2015,12:17:00,0.398,1
229,1,2,4,109,flower_pos,flower_inhib,flower_pos,inhibition,control,distractor,target,R,flower_pos,Y,7/23/2015,12:17:00,0.42,1
230,1,2,4,110,flower_pos,flower_pos,flower_inhib,inhibition,control,target,distractor,L,flower_pos,Y,7/23/2015,12:17:00,0.386,1
231,1,2,4,111,flower_inhib,flower_inhib,flower_pos,inhibition,inhib,target,distractor,L,flower_inhib,Y,7/23/2015,12:17:00,0.566,1
232,1,2,4,112,teddybear_pos,teddybear_pos,teddybear_inhib,inhibition,control,target,distractor,L,teddybear_pos,Y,7/23/2015,12:17:00,0.422,1
233,1,2,4,113,teddybear_pos,teddybear_inhib,teddybear_pos,inhibition,control,distractor,target,R,teddybear_pos,Y,7/23/2015,12:17:00,0.429,1
234,1,2,4,114,teddybear_pos,teddybear_inhib,teddybear_pos,inhibition,control,distractor,target,R,teddybear_pos,Y,7/23/2015,12:17:00,0.507,1
235,1,2,4,115,teddybear_pos,teddybear_pos,teddybear_inhib,inhibition,control,target,distractor,L,teddybear_pos,Y,7/23/2015,12:17:00,0.414,1
236,1,2,4,116,teddybear_pos,teddybear_pos,teddybear_inhib,inhibition,control,target,distractor,L,teddybear_pos,Y,7/23/2015,12:17:00,0.395,1
237,1,2,4,117,teddybear_pos,teddybear_pos,teddybear_inhib,inhibition,control,target,distractor,L,teddybear_pos,Y,7/23/2015,12:17:00,0.46,1
238,1,2,4,118,teddybear_inhib,teddybear_inhib,teddybear_pos,inhibition,inhib,target,distractor,L,teddybear_inhib,Y,7/23/2015,12:17:00,0.64,1
239,1,2,4,119,cat_pos,cat_pos,cat_inhib,inhibition,control,target,distractor,L,cat_pos,Y,7/23/2015,12:17:00,0.711,1
240,1,2,4,120,cat_pos,cat_pos,cat_inhib,inhibition,control,target,distractor,L,cat_pos,Y,7/23/2015,12:17:00,0.373,1
241,1,2,4,121,cat_pos,cat_inhib,cat_pos,inhibition,control,distractor,target,R,cat_pos,Y,7/23/2015,12:17:00,0.425,1
242,1,2,4,122,cat_pos,cat_inhib,cat_pos,inhibition,control,distractor,target,L,cat_inhib,N,7/23/2015,12:17:00,0.307,0
243,1,2,4,123,cat_pos,cat_inhib,cat_pos,inhibition,control,distractor,target,R,cat_pos,Y,7/23/2015,12:17:00,0.362,1
244,1,2,4,124,cat_inhib,cat_pos,cat_inhib,inhibition,inhib,distractor,target,L,cat_pos,N,7/23/2015,12:17:00,0.458,0
245,1,2,4,125,lamp_pos,lamp_inhib,lamp_pos,inhibition,control,distractor,target,R,lamp_pos,Y,7/23/2015,12:17:00,0.779,1
246,1,2,4,126,lamp_pos,lamp_inhib,lamp_pos,inhibition,control,distractor,target,R,lamp_pos,Y,7/23/2015,12:17:00,0.322,1
247,1,2,4,127,lamp_pos,lamp_inhib,lamp_pos,inhibition,control,distractor,target,R,lamp_pos,Y,7/23/2015,12:17:00,0.397,1
248,1,2,4,128,lamp_pos,lamp_inhib,lamp_pos,inhibition,control,distractor,target,R,lamp_pos,Y,7/23/2015,12:17:00,0.408,1
249,1,2,4,129,lamp_pos,lamp_inhib,lamp_pos,inhibition,control,distractor,target,R,lamp_pos,Y,7/23/2015,12:17:00,0.346,1
250,1,2,4,130,lamp_pos,lamp_inhib,lamp_pos,inhibition,control,distractor,target,R,lamp_pos,Y,7/23/2015,12:17:00,0.328,1
251,1,2,4,131,lamp_inhib,lamp_pos,lamp_inhib,inhibition,inhib,distractor,target,L,lamp_pos,N,7/23/2015,12:17:00,0.383,0
252,1,2,4,132,bicycle_pos,bicycle_pos,bicycle_inhib,inhibition,control,target,distractor,L,bicycle_pos,Y,7/23/2015,12:17:00,1.008,1
253,1,2,4,133,bicycle_pos,bicycle_pos,bicycle_inhib,inhibition,control,target,distractor,L,bicycle_pos,Y,7/23/2015,12:17:00,0.457,1
254,1,2,4,134,bicycle_pos,bicycle_inhib,bicycle_pos,inhibition,control,distractor,target,R,bicycle_pos,Y,7/23/2015,12:17:00,0.423,1
255,1,2,4,135,bicycle_pos,bicycle_inhib,bicycle_pos,inhibition,control,distractor,target,R,bicycle_pos,Y,7/23/2015,12:17:00,0.407,1
256,1,2,4,136,bicycle_pos,bicycle_pos,bicycle_inhib,inhibition,control,target,distractor,L,bicycle_pos,Y,7/23/2015,12:17:00,0.426,1
257,1,2,4,137,bicycle_pos,bicycle_inhib,bicycle_pos,inhibition,control,distractor,target,R,bicycle_pos,Y,7/23/2015,12:17:00,0.461,1
258,1,2,4,138,bicycle_inhib,bicycle_pos,bicycle_inhib,inhibition,inhib,distractor,target,R,bicycle_inhib,Y,7/23/2015,12:17:00,0.6,1
259,1,2,4,139,cup_pos,cup_pos,cup_inhib,inhibition,control,target,distractor,L,cup_pos,Y,7/23/2015,12:17:00,0.804,1
260,1,2,4,140,cup_pos,cup_pos,cup_inhib,inhibition,control,target,distractor,L,cup_pos,Y,7/23/2015,12:17:00,0.471,1
261,1,2,4,141,cup_pos,cup_inhib,cup_pos,inhibition,control,distractor,target,R,cup_pos,Y,7/23/2015,12:17:00,0.406,1
262,1,2,4,142,cup_pos,cup_pos,cup_inhib,inhibition,control,target,distractor,L,cup_pos,Y,7/23/2015,12:17:00,0.278,1
263,1,2,4,143,cup_pos,cup_inhib,cup_pos,inhibition,control,distractor,target,R,cup_pos,Y,7/23/2015,12:17:00,0.355,1
264,1,2,4,144,cup_inhib,cup_pos,cup_inhib,inhibition,inhib,distractor,target,L,cup_pos,N,7/23/2015,12:17:00,0.324,0
265,1,2,4,145,banana_pos,banana_inhib,banana_pos,inhibition,control,distractor,target,R,banana_pos,Y,7/23/2015,12:17:00,1.227,1
266,1,2,4,146,banana_pos,banana_pos,banana_inhib,inhibition,control,target,distractor,L,banana_pos,Y,7/23/2015,12:17:00,0.493,1
267,1,2,4,147,banana_pos,banana_inhib,banana_pos,inhibition,control,distractor,target,R,banana_pos,Y,7/23/2015,12:17:00,0.393,1
268,1,2,4,148,banana_pos,banana_inhib,banana_pos,inhibition,control,distractor,target,R,banana_pos,Y,7/23/2015,12:17:00,0.54,1
269,1,2,4,149,banana_pos,banana_pos,banana_inhib,inhibition,control,target,distractor,L,banana_pos,Y,7/23/2015,12:17:00,0.44,1
270,1,2,4,150,banana_inhib,banana_inhib,banana_pos,inhibition,inhib,target,distractor,L,banana_inhib,Y,7/23/2015,12:17:00,0.511,1
271,1,2,4,151,cookie_pos,cookie_pos,cookie_inhib,inhibition,control,target,distractor,L,cookie_pos,Y,7/23/2015,12:17:00,0.383,1
272,1,2,4,152,cookie_pos,cookie_pos,cookie_inhib,inhibition,control,target,distractor,L,cookie_pos,Y,7/23/2015,12:17:00,0.343,1
273,1,2,4,153,cookie_pos,cookie_pos,cookie_inhib,inhibition,control,target,distractor,L,cookie_pos,Y,7/23/2015,12:17:00,0.358,1
274,1,2,4,154,cookie_pos,cookie_inhib,cookie_pos,inhibition,control,distractor,target,R,cookie_pos,Y,7/23/2015,12:17:00,0.413,1
275,1,2,4,155,cookie_pos,cookie_inhib,cookie_pos,inhibition,control,distractor,target,R,cookie_pos,Y,7/23/2015,12:17:00,0.461,1
276,1,2,4,156,cookie_pos,cookie_pos,cookie_inhib,inhibition,control,target,distractor,L,cookie_pos,Y,7/23/2015,12:17:00,0.379,1
277,1,2,4,157,cookie_inhib,cookie_pos,cookie_inhib,inhibition,inhib,distractor,target,R,cookie_inhib,Y,7/23/2015,12:17:00,0.592,1
278,1,2,4,1,cookie_pos,cookie_neg,cookie_pos,negation,positive,distractor,target,R,cookie_pos,Y,7/23/2015,12:17:00,0.843,1
279,1,2,4,2,flower_neg,flower_neg,flower_pos,negation,negative,target,distractor,L,flower_neg,Y,7/23/2015,12:17:00,1.003,1
280,1,2,4,3,cat_pos,cat_pos,cat_neg,negation,positive,target,distractor,L,cat_pos,Y,7/23/2015,12:17:00,1.081,1
281,1,2,4,4,bicycle_pos,bicycle_pos,bicycle_neg,negation,positive,target,distractor,L,bicycle_pos,Y,7/23/2015,12:17:00,0.781,1
282,1,2,4,5,lamp_pos,lamp_neg,lamp_pos,negation,positive,distractor,target,L,lamp_neg,N,7/23/2015,12:17:00,0.586,0
283,1,2,4,6,bird_neg,bird_pos,bird_neg,negation,negative,distractor,target,R,bird_neg,Y,7/23/2015,12:17:00,0.778,1
284,1,2,4,7,banana_neg,banana_neg,banana_pos,negation,negative,target,distractor,L,banana_neg,Y,7/23/2015,12:17:00,1.072,1
285,1,2,4,8,dog_pos,dog_pos,dog_neg,negation,positive,target,distractor,L,dog_pos,Y,7/23/2015,12:17:00,0.728,1
286,1,2,4,9,apple_neg,apple_pos,apple_neg,negation,negative,distractor,target,R,apple_neg,Y,7/23/2015,12:17:00,0.5439999999999979,1
287,1,2,4,10,car_neg,car_pos,car_neg,negation,negative,distractor,target,R,car_neg,Y,7/23/2015,12:17:00,0.598,1
288,1,2,4,11,teddybear_neg,teddybear_neg,teddybear_pos,negation,negative,target,distractor,L,teddybear_neg,Y,7/23/2015,12:17:00,0.6849999999999979,1
289,1,2,4,12,cup_neg,cup_pos,cup_neg,negation,negative,distractor,target,R,cup_neg,Y,7/23/2015,12:17:00,0.5730000000000011,1
290,1,2,4,13,apple_pos,apple_neg,apple_pos,negation,positive,distractor,target,L,apple_neg,N,7/23/2015,12:17:00,1.016,0
291,1,2,4,14,cookie_pos,cookie_neg,cookie_pos,negation,positive,distractor,target,R,cookie_pos,Y,7/23/2015,12:17:00,1.153,1
292,1,2,4,15,banana_pos,banana_neg,banana_pos,negation,positive,distractor,target,R,banana_pos,Y,7/23/2015,12:17:00,0.723,1
293,1,2,4,16,dog_pos,dog_neg,dog_pos,negation,positive,distractor,target,R,dog_pos,Y,7/23/2015,12:17:00,0.862,1
294,1,2,4,17,bird_neg,bird_pos,bird_neg,negation,negative,distractor,target,R,bird_neg,Y,7/23/2015,12:17:00,0.759,1
295,1,2,4,18,bicycle_neg,bicycle_neg,bicycle_pos,negation,negative,target,distractor,L,bicycle_neg,Y,7/23/2015,12:17:00,1.004,1
296,1,2,4,19,cup_neg,cup_pos,cup_neg,negation,negative,distractor,target,R,cup_neg,Y,7/23/2015,12:17:00,0.604000000000001,1
297,1,2,4,20,lamp_neg,lamp_pos,lamp_neg,negation,negative,distractor,target,R,lamp_neg,Y,7/23/2015,12:17:00,0.7079999999999971,1
298,1,2,4,21,car_pos,car_neg,car_pos,negation,positive,distractor,target,R,car_pos,Y,7/23/2015,12:17:00,0.837,1
299,1,2,4,22,cat_pos,cat_pos,cat_neg,negation,positive,target,distractor,L,cat_pos,Y,7/23/2015,12:17:00,0.934,1
300,1,2,4,23,flower_pos,flower_pos,flower_neg,negation,positive,target,distractor,L,flower_pos,Y,7/23/2015,12:17:00,0.587,1
301,1,2,4,25,lamp_neg,lamp_neg,lamp_pos,negation,negative,target,distractor,L,lamp_neg,Y,7/23/2015,12:17:00,0.539999999999997,1
302,1,2,4,24,teddybear_neg,teddybear_neg,teddybear_pos,negation,negative,target,distractor,L,teddybear_neg,Y,7/23/2015,12:17:00,0.6499999999999979,1
303,1,2,4,26,flower_pos,flower_neg,flower_pos,negation,positive,distractor,target,R,flower_pos,Y,7/23/2015,12:17:00,0.888,1
304,1,2,4,27,bicycle_pos,bicycle_pos,bicycle_neg,negation,positive,target,distractor,L,bicycle_pos,Y,7/23/2015,12:17:00,0.542,1
305,1,2,4,28,dog_pos,dog_neg,dog_pos,negation,positive,distractor,target,R,dog_pos,Y,7/23/2015,12:17:00,0.602,1
306,1,2,4,29,cup_pos,cup_pos,cup_neg,negation,positive,target,distractor,L,cup_pos,Y,7/23/2015,12:17:00,0.554,1
307,1,2,4,30,apple_pos,apple_pos,apple_neg,negation,positive,target,distractor,L,apple_pos,Y,7/23/2015,12:17:00,0.579,1
308,1,2,4,31,cookie_neg,cookie_neg,cookie_pos,negation,negative,target,distractor,L,cookie_neg,Y,7/23/2015,12:17:00,0.547,1
309,1,2,4,32,teddybear_neg,teddybear_neg,teddybear_pos,negation,negative,target,distractor,L,teddybear_neg,Y,7/23/2015,12:17:00,0.720999999999998,1
310,1,2,4,33,bird_neg,bird_pos,bird_neg,negation,negative,distractor,target,R,bird_neg,Y,7/23/2015,12:17:00,0.55,1
311,1,2,4,34,cat_pos,cat_pos,cat_neg,negation,positive,target,distractor,L,cat_pos,Y,7/23/2015,12:17:00,0.655,1
312,1,2,4,35,banana_neg,banana_pos,banana_neg,negation,negative,distractor,target,R,banana_neg,Y,7/23/2015,12:17:00,0.5730000000000011,1
313,1,2,4,36,car_neg,car_neg,car_pos,negation,negative,target,distractor,L,car_neg,Y,7/23/2015,12:17:00,0.59,1
314,1,2,4,37,car_pos,car_pos,car_neg,negation,positive,target,distractor,L,car_pos,Y,7/23/2015,12:17:00,0.644,1
315,1,2,4,38,banana_neg,banana_neg,banana_pos,negation,negative,target,distractor,R,banana_pos,N,7/23/2015,12:17:00,0.517000000000001,0
316,1,2,4,39,dog_pos,dog_neg,dog_pos,negation,positive,distractor,target,R,dog_pos,Y,7/23/2015,12:17:00,0.79,1
317,1,2,4,40,teddybear_neg,teddybear_pos,teddybear_neg,negation,negative,distractor,target,R,teddybear_neg,Y,7/23/2015,12:17:00,0.7689999999999979,1
318,1,2,4,41,cup_pos,cup_neg,cup_pos,negation,positive,distractor,target,R,cup_pos,Y,7/23/2015,12:17:00,0.748,1
319,1,2,4,42,bird_pos,bird_neg,bird_pos,negation,positive,distractor,target,R,bird_pos,Y,7/23/2015,12:17:00,0.76,1
320,1,2,4,43,apple_neg,apple_neg,apple_pos,negation,negative,target,distractor,L,apple_neg,Y,7/23/2015,12:17:00,0.5379999999999979,1
321,1,2,4,44,lamp_pos,lamp_pos,lamp_neg,negation,positive,target,distractor,L,lamp_pos,Y,7/23/2015,12:17:00,0.669,1
322,1,2,4,45,cat_neg,cat_neg,cat_pos,negation,negative,target,distractor,L,cat_neg,Y,7/23/2015,12:17:00,0.652000000000001,1
323,1,2,4,46,cookie_pos,cookie_pos,cookie_neg,negation,positive,target,distractor,L,cookie_pos,Y,7/23/2015,12:17:00,0.666,1
324,1,2,4,48,flower_neg,flower_pos,flower_neg,negation,negative,distractor,target,L,flower_pos,N,7/23/2015,12:17:00,0.498000000000001,0
325,1,2,4,47,bicycle_neg,bicycle_pos,bicycle_neg,negation,negative,distractor,target,R,bicycle_neg,Y,7/23/2015,12:17:00,0.881000000000001,1
326,1,2,4,49,banana_pos,banana_neg,banana_pos,negation,positive,distractor,target,L,banana_neg,N,7/23/2015,12:17:00,1.032,0
327,1,2,4,50,flower_pos,flower_neg,flower_pos,negation,positive,distractor,target,R,flower_pos,Y,7/23/2015,12:17:00,1.107,1
328,1,2,4,51,bird_neg,bird_neg,bird_pos,negation,negative,target,distractor,R,bird_pos,N,7/23/2015,12:17:00,0.541,0
329,1,2,4,52,apple_neg,apple_pos,apple_neg,negation,negative,distractor,target,L,apple_pos,N,7/23/2015,12:17:00,0.480999999999998,0
330,1,2,4,53,lamp_neg,lamp_neg,lamp_pos,negation,negative,target,distractor,R,lamp_pos,N,7/23/2015,12:17:00,0.519999999999997,0
331,1,2,4,54,bicycle_pos,bicycle_pos,bicycle_neg,negation,positive,target,distractor,L,bicycle_pos,Y,7/23/2015,12:17:00,0.77,1
332,1,2,4,55,cup_pos,cup_pos,cup_neg,negation,positive,target,distractor,L,cup_pos,Y,7/23/2015,12:17:00,0.757,1
333,1,2,4,56,car_neg,car_pos,car_neg,negation,negative,distractor,target,R,car_neg,Y,7/23/2015,12:17:00,0.626,1
334,1,2,4,57,cookie_pos,cookie_neg,cookie_pos,negation,positive,distractor,target,R,cookie_pos,Y,7/23/2015,12:17:00,0.712,1
335,1,2,4,58,teddybear_pos,teddybear_pos,teddybear_neg,negation,positive,target,distractor,L,teddybear_pos,Y,7/23/2015,12:17:00,0.602,1
336,1,2,4,59,cat_pos,cat_pos,cat_neg,negation,positive,target,distractor,L,cat_pos,Y,7/23/2015,12:17:00,0.64,1
337,1,2,4,60,dog_neg,dog_neg,dog_pos,negation,negative,target,distractor,L,dog_neg,Y,7/23/2015,12:17:00,0.857,1
338,1,2,4,61,bird_pos,bird_pos,bird_neg,negation,positive,target,distractor,R,bird_neg,N,7/23/2015,12:17:00,0.717,0
339,1,2,4,62,teddybear_neg,teddybear_pos,teddybear_neg,negation,negative,distractor,target,L,teddybear_pos,N,7/23/2015,12:17:00,0.711999999999998,0
340,1,2,4,63,flower_pos,flower_pos,flower_neg,negation,positive,target,distractor,L,flower_pos,Y,7/23/2015,12:17:00,0.881,1
341,1,2,4,64,car_neg,car_pos,car_neg,negation,negative,distractor,target,R,car_neg,Y,7/23/2015,12:17:00,0.58,1
342,1,2,4,65,dog_pos,dog_pos,dog_neg,negation,positive,target,distractor,L,dog_pos,Y,7/23/2015,12:17:00,0.611,1
343,1,2,4,66,apple_pos,apple_pos,apple_neg,negation,positive,target,distractor,L,apple_pos,Y,7/23/2015,12:17:00,0.76,1
344,1,2,4,67,lamp_neg,lamp_pos,lamp_neg,negation,negative,distractor,target,R,lamp_neg,Y,7/23/2015,12:17:00,0.918999999999997,1
345,1,2,4,68,bicycle_pos,bicycle_pos,bicycle_neg,negation,positive,target,distractor,L,bicycle_pos,Y,7/23/2015,12:17:00,0.722,1
346,1,2,4,69,cookie_neg,cookie_neg,cookie_pos,negation,negative,target,distractor,L,cookie_neg,Y,7/23/2015,12:17:00,0.653,1
347,1,2,4,70,banana_neg,banana_neg,banana_pos,negation,negative,target,distractor,L,banana_neg,Y,7/23/2015,12:17:00,1.061,1
348,1,2,4,71,cat_neg,cat_neg,cat_pos,negation,negative,target,distractor,R,cat_pos,N,7/23/2015,12:17:00,0.557000000000001,0
349,1,2,4,72,cup_pos,cup_pos,cup_neg,negation,positive,target,distractor,L,cup_pos,Y,7/23/2015,12:17:00,0.73,1
350,1,2,4,73,banana_pos,banana_pos,banana_neg,negation,positive,target,distractor,L,banana_pos,Y,7/23/2015,12:17:00,1.4,1
351,1,2,4,74,dog_neg,dog_pos,dog_neg,negation,negative,distractor,target,R,dog_neg,Y,7/23/2015,12:17:00,1.156,1
352,1,2,4,75,flower_neg,flower_neg,flower_pos,negation,negative,target,distractor,L,flower_neg,Y,7/23/2015,12:17:00,0.49400000000000105,1
353,1,2,4,76,bird_pos,bird_pos,bird_neg,negation,positive,target,distractor,R,bird_neg,N,7/23/2015,12:17:00,0.702,0
354,1,2,4,77,lamp_neg,lamp_pos,lamp_neg,negation,negative,distractor,target,L,lamp_pos,N,7/23/2015,12:17:00,0.526999999999997,0
355,1,2,4,78,cat_neg,cat_pos,cat_neg,negation,negative,distractor,target,R,cat_neg,Y,7/23/2015,12:17:00,0.8140000000000011,1
356,1,2,4,79,cookie_pos,cookie_pos,cookie_neg,negation,positive,target,distractor,L,cookie_pos,Y,7/23/2015,12:17:00,0.543,1
357,1,2,4,80,bicycle_neg,bicycle_pos,bicycle_neg,negation,negative,distractor,target,R,bicycle_neg,Y,7/23/2015,12:17:00,0.5830000000000011,1
358,1,2,4,81,apple_neg,apple_pos,apple_neg,negation,negative,distractor,target,L,apple_pos,N,7/23/2015,12:17:00,0.493999999999998,0
359,1,2,4,82,cup_neg,cup_pos,cup_neg,negation,negative,distractor,target,R,cup_neg,Y,7/23/2015,12:17:00,0.596000000000001,1
360,1,2,4,83,teddybear_pos,teddybear_pos,teddybear_neg,negation,positive,target,distractor,L,teddybear_pos,Y,7/23/2015,12:17:00,0.729,1
361,1,2,4,84,car_pos,car_neg,car_pos,negation,positive,distractor,target,L,car_neg,N,7/23/2015,12:17:00,0.693,0
362,1,2,4,85,dog_neg,dog_neg,dog_pos,negation,negative,target,distractor,L,dog_neg,Y,7/23/2015,12:17:00,1.747,1
363,1,2,4,86,bird_pos,bird_pos,bird_neg,negation,positive,target,distractor,L,bird_pos,Y,7/23/2015,12:17:00,0.724,1
364,1,2,4,87,cup_pos,cup_neg,cup_pos,negation,positive,distractor,target,R,cup_pos,Y,7/23/2015,12:17:00,0.827,1
365,1,2,4,88,banana_neg,banana_neg,banana_pos,negation,negative,target,distractor,L,banana_neg,Y,7/23/2015,12:17:00,0.6970000000000011,1
366,1,2,4,89,cookie_neg,cookie_neg,cookie_pos,negation,negative,target,distractor,L,cookie_neg,Y,7/23/2015,12:17:00,0.759,1
367,1,2,4,90,lamp_neg,lamp_pos,lamp_neg,negation,negative,distractor,target,R,lamp_neg,Y,7/23/2015,12:17:00,0.483999999999997,1
368,1,2,4,91,cat_neg,cat_neg,cat_pos,negation,negative,target,distractor,L,cat_neg,Y,7/23/2015,12:17:00,0.861000000000001,1
369,1,2,4,92,car_pos,car_neg,car_pos,negation,positive,distractor,target,R,car_pos,Y,7/23/2015,12:17:00,0.841,1
370,1,2,4,93,bicycle_pos,bicycle_neg,bicycle_pos,negation,positive,distractor,target,R,bicycle_pos,Y,7/23/2015,12:17:00,0.832,1
371,1,2,4,94,apple_neg,apple_neg,apple_pos,negation,negative,target,distractor,R,apple_pos,N,7/23/2015,12:17:00,0.6349999999999979,0
372,1,2,4,95,flower_pos,flower_pos,flower_neg,negation,positive,target,distractor,L,flower_pos,Y,7/23/2015,12:17:00,0.929,1
373,1,2,4,96,teddybear_pos,teddybear_pos,teddybear_neg,negation,positive,target,distractor,L,teddybear_pos,Y,7/23/2015,12:17:00,0.7,1
374,1,2,4,97,apple_neg,apple_pos,apple_neg,negation,negative,distractor,target,R,apple_neg,Y,7/23/2015,12:17:00,0.578999999999998,1
375,1,2,4,98,dog_pos,dog_neg,dog_pos,negation,positive,distractor,target,R,dog_pos,Y,7/23/2015,12:17:00,0.815,1
376,1,2,4,99,bird_neg,bird_neg,bird_pos,negation,negative,target,distractor,L,bird_neg,Y,7/23/2015,12:17:00,0.64,1
377,1,2,4,100,cookie_neg,cookie_neg,cookie_pos,negation,negative,target,distractor,L,cookie_neg,Y,7/23/2015,12:17:00,0.691,1
378,1,2,4,101,teddybear_pos,teddybear_pos,teddybear_neg,negation,positive,target,distractor,L,teddybear_pos,Y,7/23/2015,12:17:00,0.804,1
379,1,2,4,102,banana_pos,banana_neg,banana_pos,negation,positive,distractor,target,L,banana_neg,N,7/23/2015,12:17:00,0.829,0
380,1,2,4,103,cup_neg,cup_pos,cup_neg,negation,negative,distractor,target,L,cup_pos,N,7/23/2015,12:17:00,1.441,0
381,1,2,4,104,car_pos,car_neg,car_pos,negation,positive,distractor,target,L,car_neg,N,7/23/2015,12:17:00,0.703,0
382,1,2,4,105,flower_pos,flower_neg,flower_pos,negation,positive,distractor,target,R,flower_pos,Y,7/23/2015,12:17:00,1.207,1
383,1,2,4,106,cat_neg,cat_neg,cat_pos,negation,negative,target,distractor,L,cat_neg,Y,7/23/2015,12:17:00,1.069,1
384,1,2,4,107,lamp_neg,lamp_pos,lamp_neg,negation,negative,distractor,target,R,lamp_neg,Y,7/23/2015,12:17:00,0.493999999999997,1
385,1,2,4,108,bicycle_pos,bicycle_neg,bicycle_pos,negation,positive,distractor,target,R,bicycle_pos,Y,7/23/2015,12:17:00,0.834,1
386,1,2,4,109,cup_pos,cup_neg,cup_pos,negation,positive,distractor,target,R,cup_pos,Y,7/23/2015,12:17:00,0.757,1
387,1,2,4,110,cat_neg,cat_pos,cat_neg,negation,negative,distractor,target,R,cat_neg,Y,7/23/2015,12:17:00,0.849000000000001,1
388,1,2,4,111,banana_neg,banana_pos,banana_neg,negation,negative,distractor,target,R,banana_neg,Y,7/23/2015,12:17:00,0.653000000000001,1
389,1,2,4,113,apple_neg,apple_pos,apple_neg,negation,negative,distractor,target,R,apple_neg,Y,7/23/2015,12:17:00,0.6749999999999979,1
390,1,2,4,112,bird_neg,bird_pos,bird_neg,negation,negative,distractor,target,L,bird_pos,N,7/23/2015,12:17:00,0.783,0
391,1,2,4,114,car_pos,car_neg,car_pos,negation,positive,distractor,target,R,car_pos,Y,7/23/2015,12:17:00,0.848,1
392,1,2,4,115,lamp_pos,lamp_neg,lamp_pos,negation,positive,distractor,target,R,lamp_pos,Y,7/23/2015,12:17:00,0.706,1
393,1,2,4,116,dog_neg,dog_pos,dog_neg,negation,negative,distractor,target,R,dog_neg,Y,7/23/2015,12:17:00,0.954,1
394,1,2,4,117,bicycle_neg,bicycle_neg,bicycle_pos,negation,negative,target,distractor,L,bicycle_neg,Y,7/23/2015,12:17:00,0.676000000000001,1
395,1,2,4,118,cookie_pos,cookie_pos,cookie_neg,negation,positive,target,distractor,L,cookie_pos,Y,7/23/2015,12:17:00,1.04,1
396,1,2,4,119,teddybear_pos,teddybear_neg,teddybear_pos,negation,positive,distractor,target,R,teddybear_pos,Y,7/23/2015,12:17:00,0.715,1
397,1,2,4,120,flower_pos,flower_neg,flower_pos,negation,positive,distractor,target,R,flower_pos,Y,7/23/2015,12:17:00,0.808,1
398,2,2,3,1,cookie_pos,cookie_neg,cookie_pos,negation,positive,distractor,target,R,cookie_pos,Y,7/24/2015,11:22:00,1.314,1
399,2,2,3,2,flower_neg,flower_neg,flower_pos,negation,negative,target,distractor,R,flower_pos,N,7/24/2015,11:22:00,1.18,0
400,2,2,3,3,cat_neg,cat_neg,cat_pos,negation,negative,target,distractor,L,cat_neg,Y,7/24/2015,11:22:00,1.191,1
401,2,2,3,4,bicycle_neg,bicycle_pos,bicycle_neg,negation,negative,distractor,target,R,bicycle_neg,Y,7/24/2015,11:22:00,0.868000000000001,1
402,2,2,3,5,lamp_pos,lamp_neg,lamp_pos,negation,positive,distractor,target,L,lamp_neg,N,7/24/2015,11:22:00,0.918,0
403,2,2,3,6,bird_pos,bird_pos,bird_neg,negation,positive,target,distractor,L,bird_pos,Y,7/24/2015,11:22:00,1.025,1
404,2,2,3,7,banana_pos,banana_neg,banana_pos,negation,positive,distractor,target,R,banana_pos,Y,7/24/2015,11:22:00,1.355,1
405,2,2,3,8,dog_pos,dog_pos,dog_neg,negation,positive,target,distractor,L,dog_pos,Y,7/24/2015,11:22:00,0.877,1
406,2,2,3,9,apple_pos,apple_pos,apple_neg,negation,positive,target,distractor,L,apple_pos,Y,7/24/2015,11:22:00,0.737,1
407,2,2,3,10,car_neg,car_neg,car_pos,negation,negative,target,distractor,L,car_neg,Y,7/24/2015,11:22:00,1.177,1
408,2,2,3,11,teddybear_pos,teddybear_pos,teddybear_neg,negation,positive,target,distractor,L,teddybear_pos,Y,7/24/2015,11:22:00,1.155,1
409,2,2,3,12,cup_neg,cup_neg,cup_pos,negation,negative,target,distractor,L,cup_neg,Y,7/24/2015,11:22:00,0.9460000000000011,1
410,2,2,3,13,apple_pos,apple_neg,apple_pos,negation,positive,distractor,target,R,apple_pos,Y,7/24/2015,11:22:00,1.362,1
411,2,2,3,14,cookie_neg,cookie_pos,cookie_neg,negation,negative,distractor,target,R,cookie_neg,Y,7/24/2015,11:22:00,0.714,1
412,2,2,3,15,banana_neg,banana_neg,banana_pos,negation,negative,target,distractor,L,banana_neg,Y,7/24/2015,11:22:00,0.869000000000001,1
413,2,2,3,16,dog_pos,dog_neg,dog_pos,negation,positive,distractor,target,R,dog_pos,Y,7/24/2015,11:22:00,0.993,1
414,2,2,3,17,bird_pos,bird_pos,bird_neg,negation,positive,target,distractor,R,bird_neg,N,7/24/2015,11:22:00,1.197,0
415,2,2,3,18,bicycle_neg,bicycle_pos,bicycle_neg,negation,negative,distractor,target,R,bicycle_neg,Y,7/24/2015,11:22:00,1.169,1
416,2,2,3,19,cup_neg,cup_neg,cup_pos,negation,negative,target,distractor,L,cup_neg,Y,7/24/2015,11:22:00,1.324,1
417,2,2,3,20,lamp_pos,lamp_neg,lamp_pos,negation,positive,distractor,target,R,lamp_pos,Y,7/24/2015,11:22:00,1.259,1
418,2,2,3,21,car_pos,car_pos,car_neg,negation,positive,target,distractor,L,car_pos,Y,7/24/2015,11:22:00,1.127,1
419,2,2,3,22,cat_neg,cat_pos,cat_neg,negation,negative,distractor,target,R,cat_neg,Y,7/24/2015,11:22:00,1.034,1
420,2,2,3,23,flower_neg,flower_neg,flower_pos,negation,negative,target,distractor,L,flower_neg,Y,7/24/2015,11:22:00,0.935,1
421,2,2,3,24,teddybear_pos,teddybear_pos,teddybear_neg,negation,positive,target,distractor,L,teddybear_pos,Y,7/24/2015,11:22:00,0.976,1
422,2,2,3,25,lamp_pos,lamp_pos,lamp_neg,negation,positive,target,distractor,L,lamp_pos,Y,7/24/2015,11:22:00,0.753,1
423,2,2,3,26,flower_pos,flower_neg,flower_pos,negation,positive,distractor,target,R,flower_pos,Y,7/24/2015,11:22:00,0.986,1
424,2,2,3,27,bicycle_neg,bicycle_pos,bicycle_neg,negation,negative,distractor,target,R,bicycle_neg,Y,7/24/2015,11:22:00,0.805000000000001,1
425,2,2,3,28,dog_neg,dog_neg,dog_pos,negation,negative,target,distractor,L,dog_neg,Y,7/24/2015,11:22:00,1.098,1
426,2,2,3,29,cup_pos,cup_pos,cup_neg,negation,positive,target,distractor,L,cup_pos,Y,7/24/2015,11:22:00,0.991,1
427,2,2,3,30,apple_neg,apple_neg,apple_pos,negation,negative,target,distractor,L,apple_neg,Y,7/24/2015,11:22:00,0.8919999999999979,1
428,2,2,3,31,cookie_pos,cookie_neg,cookie_pos,negation,positive,distractor,target,R,cookie_pos,Y,7/24/2015,11:22:00,0.717,1
429,2,2,3,32,teddybear_pos,teddybear_pos,teddybear_neg,negation,positive,target,distractor,L,teddybear_pos,Y,7/24/2015,11:22:00,0.713,1
430,2,2,3,33,bird_pos,bird_neg,bird_pos,negation,positive,distractor,target,R,bird_pos,Y,7/24/2015,11:22:00,0.804,1
431,2,2,3,34,cat_neg,cat_neg,cat_pos,negation,negative,target,distractor,L,cat_neg,Y,7/24/2015,11:22:00,1.23,1
432,2,2,3,35,banana_neg,banana_neg,banana_pos,negation,negative,target,distractor,L,banana_neg,Y,7/24/2015,11:22:00,1.39,1
433,2,2,3,36,car_pos,car_pos,car_neg,negation,positive,target,distractor,L,car_pos,Y,7/24/2015,11:22:00,1.02,1
434,2,2,3,37,car_neg,car_pos,car_neg,negation,negative,distractor,target,R,car_neg,Y,7/24/2015,11:22:00,0.861,1
435,2,2,3,38,banana_neg,banana_neg,banana_pos,negation,negative,target,distractor,L,banana_neg,Y,7/24/2015,11:22:00,1.038,1
436,2,2,3,39,dog_pos,dog_neg,dog_pos,negation,positive,distractor,target,R,dog_pos,Y,7/24/2015,11:22:00,0.845,1
437,2,2,3,40,teddybear_pos,teddybear_neg,teddybear_pos,negation,positive,distractor,target,R,teddybear_pos,Y,7/24/2015,11:22:00,0.88,1
438,2,2,3,41,cup_neg,cup_neg,cup_pos,negation,negative,target,distractor,L,cup_neg,Y,7/24/2015,11:22:00,0.654000000000001,1
439,2,2,3,42,bird_pos,bird_neg,bird_pos,negation,positive,distractor,target,R,bird_pos,Y,7/24/2015,11:22:00,0.939,1
440,2,2,3,43,apple_pos,apple_neg,apple_pos,negation,positive,distractor,target,R,apple_pos,Y,7/24/2015,11:22:00,0.769,1
441,2,2,3,44,lamp_pos,lamp_neg,lamp_pos,negation,positive,distractor,target,R,lamp_pos,Y,7/24/2015,11:22:00,0.783,1
442,2,2,3,45,cat_pos,cat_neg,cat_pos,negation,positive,distractor,target,R,cat_pos,Y,7/24/2015,11:22:00,1.325,1
443,2,2,3,46,cookie_pos,cookie_neg,cookie_pos,negation,positive,distractor,target,R,cookie_pos,Y,7/24/2015,11:22:00,0.708,1
444,2,2,3,47,bicycle_pos,bicycle_pos,bicycle_neg,negation,positive,target,distractor,L,bicycle_pos,Y,7/24/2015,11:22:00,1.157,1
445,2,2,3,48,flower_pos,flower_neg,flower_pos,negation,positive,distractor,target,R,flower_pos,Y,7/24/2015,11:22:00,0.755,1
446,2,2,3,49,banana_pos,banana_neg,banana_pos,negation,positive,distractor,target,R,banana_pos,Y,7/24/2015,11:22:00,0.723,1
447,2,2,3,50,flower_pos,flower_neg,flower_pos,negation,positive,distractor,target,R,flower_pos,Y,7/24/2015,11:22:00,0.832,1
448,2,2,3,51,bird_neg,bird_pos,bird_neg,negation,negative,distractor,target,R,bird_neg,Y,7/24/2015,11:22:00,0.912,1
449,2,2,3,52,apple_neg,apple_pos,apple_neg,negation,negative,distractor,target,R,apple_neg,Y,7/24/2015,11:22:00,0.878999999999998,1
450,2,2,3,53,lamp_neg,lamp_neg,lamp_pos,negation,negative,target,distractor,L,lamp_neg,Y,7/24/2015,11:22:00,0.795999999999997,1
451,2,2,3,54,bicycle_pos,bicycle_pos,bicycle_neg,negation,positive,target,distractor,R,bicycle_neg,N,7/24/2015,11:22:00,1.29,0
452,2,2,3,55,cup_neg,cup_pos,cup_neg,negation,negative,distractor,target,R,cup_neg,Y,7/24/2015,11:22:00,0.9630000000000011,1
453,2,2,3,56,car_neg,car_pos,car_neg,negation,negative,distractor,target,R,car_neg,Y,7/24/2015,11:22:00,0.923,1
454,2,2,3,57,cookie_neg,cookie_neg,cookie_pos,negation,negative,target,distractor,L,cookie_neg,Y,7/24/2015,11:22:00,0.766,1
455,2,2,3,58,teddybear_pos,teddybear_neg,teddybear_pos,negation,positive,distractor,target,R,teddybear_pos,Y,7/24/2015,11:22:00,0.963,1
456,2,2,3,59,cat_neg,cat_pos,cat_neg,negation,negative,distractor,target,R,cat_neg,Y,7/24/2015,11:22:00,1.159,1
457,2,2,3,60,dog_neg,dog_pos,dog_neg,negation,negative,distractor,target,R,dog_neg,Y,7/24/2015,11:22:00,1.875,1
458,2,2,3,61,bird_pos,bird_pos,bird_neg,negation,positive,target,distractor,L,bird_pos,Y,7/24/2015,11:22:00,1.449,1
459,2,2,3,62,teddybear_pos,teddybear_neg,teddybear_pos,negation,positive,distractor,target,R,teddybear_pos,Y,7/24/2015,11:22:00,0.946,1
460,2,2,3,63,flower_pos,flower_neg,flower_pos,negation,positive,distractor,target,R,flower_pos,Y,7/24/2015,11:22:00,0.922,1
461,2,2,3,64,car_pos,car_neg,car_pos,negation,positive,distractor,target,R,car_pos,Y,7/24/2015,11:22:00,0.703,1
462,2,2,3,65,dog_pos,dog_neg,dog_pos,negation,positive,distractor,target,R,dog_pos,Y,7/24/2015,11:22:00,0.824,1
463,2,2,3,66,apple_pos,apple_pos,apple_neg,negation,positive,target,distractor,L,apple_pos,Y,7/24/2015,11:22:00,0.832,1
464,2,2,3,67,lamp_neg,lamp_neg,lamp_pos,negation,negative,target,distractor,L,lamp_neg,Y,7/24/2015,11:22:00,0.7129999999999971,1
465,2,2,3,68,bicycle_pos,bicycle_pos,bicycle_neg,negation,positive,target,distractor,L,bicycle_pos,Y,7/24/2015,11:22:00,0.762,1
466,2,2,3,69,cookie_neg,cookie_pos,cookie_neg,negation,negative,distractor,target,R,cookie_neg,Y,7/24/2015,11:22:00,0.734,1
467,2,2,3,70,banana_pos,banana_neg,banana_pos,negation,positive,distractor,target,R,banana_pos,Y,7/24/2015,11:22:00,0.817,1
468,2,2,3,71,cat_neg,cat_pos,cat_neg,negation,negative,distractor,target,R,cat_neg,Y,7/24/2015,11:22:00,0.843000000000001,1
469,2,2,3,72,cup_pos,cup_neg,cup_pos,negation,positive,distractor,target,R,cup_pos,Y,7/24/2015,11:22:00,0.983,1
470,2,2,3,73,banana_neg,banana_pos,banana_neg,negation,negative,distractor,target,R,banana_neg,Y,7/24/2015,11:22:00,0.803000000000001,1
471,2,2,3,74,dog_pos,dog_neg,dog_pos,negation,positive,distractor,target,R,dog_pos,Y,7/24/2015,11:22:00,0.838,1
472,2,2,3,75,flower_pos,flower_pos,flower_neg,negation,positive,target,distractor,L,flower_pos,Y,7/24/2015,11:22:00,1.242,1
473,2,2,3,76,bird_pos,bird_neg,bird_pos,negation,positive,distractor,target,R,bird_pos,Y,7/24/2015,11:22:00,0.739,1
474,2,2,3,77,lamp_pos,lamp_pos,lamp_neg,negation,positive,target,distractor,L,lamp_pos,Y,7/24/2015,11:22:00,0.845,1
475,2,2,3,78,cat_neg,cat_neg,cat_pos,negation,negative,target,distractor,L,cat_neg,Y,7/24/2015,11:22:00,1.223,1
476,2,2,3,79,cookie_neg,cookie_pos,cookie_neg,negation,negative,distractor,target,R,cookie_neg,Y,7/24/2015,11:22:00,0.715,1
477,2,2,3,80,bicycle_neg,bicycle_pos,bicycle_neg,negation,negative,distractor,target,R,bicycle_neg,Y,7/24/2015,11:22:00,1.052,1
478,2,2,3,81,apple_neg,apple_pos,apple_neg,negation,negative,distractor,target,R,apple_neg,Y,7/24/2015,11:22:00,0.870999999999998,1
479,2,2,3,82,cup_neg,cup_neg,cup_pos,negation,negative,target,distractor,L,cup_neg,Y,7/24/2015,11:22:00,0.906000000000001,1
480,2,2,3,83,teddybear_neg,teddybear_pos,teddybear_neg,negation,negative,distractor,target,R,teddybear_neg,Y,7/24/2015,11:22:00,0.9009999999999979,1
481,2,2,3,84,car_pos,car_neg,car_pos,negation,positive,distractor,target,R,car_pos,Y,7/24/2015,11:22:00,1.33,1
482,2,2,3,85,dog_neg,dog_pos,dog_neg,negation,negative,distractor,target,R,dog_neg,Y,7/24/2015,11:22:00,0.975,1
483,2,2,3,86,bird_pos,bird_pos,bird_neg,negation,positive,target,distractor,L,bird_pos,Y,7/24/2015,11:22:00,0.929,1
484,2,2,3,87,cup_pos,cup_pos,cup_neg,negation,positive,target,distractor,L,cup_pos,Y,7/24/2015,11:22:00,1.012,1
485,2,2,3,88,banana_neg,banana_neg,banana_pos,negation,negative,target,distractor,L,banana_neg,Y,7/24/2015,11:22:00,1.124,1
486,2,2,3,89,cookie_neg,cookie_pos,cookie_neg,negation,negative,distractor,target,R,cookie_neg,Y,7/24/2015,11:22:00,1.525,1
487,2,2,3,90,lamp_neg,lamp_neg,lamp_pos,negation,negative,target,distractor,L,lamp_neg,Y,7/24/2015,11:22:00,0.753999999999997,1
488,2,2,3,91,cat_neg,cat_neg,cat_pos,negation,negative,target,distractor,L,cat_neg,Y,7/24/2015,11:22:00,0.795000000000001,1
489,2,2,3,92,car_pos,car_neg,car_pos,negation,positive,distractor,target,R,car_pos,Y,7/24/2015,11:22:00,1.323,1
490,2,2,3,93,bicycle_neg,bicycle_neg,bicycle_pos,negation,negative,target,distractor,L,bicycle_neg,Y,7/24/2015,11:22:00,0.879000000000001,1
491,2,2,3,94,apple_neg,apple_neg,apple_pos,negation,negative,target,distractor,L,apple_neg,Y,7/24/2015,11:22:00,0.7709999999999979,1
492,2,2,3,95,flower_pos,flower_neg,flower_pos,negation,positive,distractor,target,R,flower_pos,Y,7/24/2015,11:22:00,1.945,1
493,2,2,3,96,teddybear_pos,teddybear_pos,teddybear_neg,negation,positive,target,distractor,L,teddybear_pos,Y,7/24/2015,11:22:00,1.006,1
494,2,2,3,97,apple_pos,apple_neg,apple_pos,negation,positive,distractor,target,R,apple_pos,Y,7/24/2015,11:22:00,0.633,1
495,2,2,3,98,dog_neg,dog_neg,dog_pos,negation,negative,target,distractor,L,dog_neg,Y,7/24/2015,11:22:00,1.06,1
496,2,2,3,99,bird_neg,bird_neg,bird_pos,negation,negative,target,distractor,L,bird_neg,Y,7/24/2015,11:22:00,0.626,1
497,2,2,3,100,cookie_neg,cookie_neg,cookie_pos,negation,negative,target,distractor,L,cookie_neg,Y,7/24/2015,11:22:00,0.517,1
498,2,2,3,101,teddybear_neg,teddybear_neg,teddybear_pos,negation,negative,target,distractor,L,teddybear_neg,Y,7/24/2015,11:22:00,0.8969999999999979,1
499,2,2,3,102,banana_neg,banana_neg,banana_pos,negation,negative,target,distractor,L,banana_neg,Y,7/24/2015,11:22:00,0.9460000000000011,1
500,2,2,3,103,cup_neg,cup_pos,cup_neg,negation,negative,distractor,target,R,cup_neg,Y,7/24/2015,11:22:00,0.906000000000001,1
501,2,2,3,104,car_pos,car_neg,car_pos,negation,positive,distractor,target,R,car_pos,Y,7/24/2015,11:22:00,0.837,1
502,2,2,3,105,flower_neg,flower_neg,flower_pos,negation,negative,target,distractor,L,flower_neg,Y,7/24/2015,11:22:00,1.117,1
503,2,2,3,106,cat_pos,cat_neg,cat_pos,negation,positive,distractor,target,R,cat_pos,Y,7/24/2015,11:22:00,0.832,1
504,2,2,3,107,lamp_neg,lamp_neg,lamp_pos,negation,negative,target,distractor,L,lamp_neg,Y,7/24/2015,11:22:00,1.32,1
505,2,2,3,108,bicycle_pos,bicycle_pos,bicycle_neg,negation,positive,target,distractor,L,bicycle_pos,Y,7/24/2015,11:22:00,0.89,1
506,2,2,3,109,cup_neg,cup_pos,cup_neg,negation,negative,distractor,target,R,cup_neg,Y,7/24/2015,11:22:00,1.14,1
507,2,2,3,110,cat_neg,cat_pos,cat_neg,negation,negative,distractor,target,R,cat_neg,Y,7/24/2015,11:22:00,1.862,1
508,2,2,3,111,banana_neg,banana_pos,banana_neg,negation,negative,distractor,target,R,banana_neg,Y,7/24/2015,11:22:00,1.757,1
509,2,2,3,112,bird_neg,bird_pos,bird_neg,negation,negative,distractor,target,R,bird_neg,Y,7/24/2015,11:22:00,5.629,1
510,2,2,3,113,apple_neg,apple_pos,apple_neg,negation,negative,distractor,target,R,apple_neg,Y,7/24/2015,11:22:00,1.399,1
511,2,2,3,114,car_neg,car_pos,car_neg,negation,negative,distractor,target,R,car_neg,Y,7/24/2015,11:22:00,0.898,1
512,2,2,3,115,lamp_neg,lamp_neg,lamp_pos,negation,negative,target,distractor,L,lamp_neg,Y,7/24/2015,11:22:00,1.075,1
513,2,2,3,116,dog_pos,dog_pos,dog_neg,negation,positive,target,distractor,L,dog_pos,Y,7/24/2015,11:22:00,1.019,1
514,2,2,3,117,bicycle_pos,bicycle_neg,bicycle_pos,negation,positive,distractor,target,R,bicycle_pos,Y,7/24/2015,11:22:00,0.961,1
515,2,2,3,118,cookie_neg,cookie_neg,cookie_pos,negation,negative,target,distractor,L,cookie_neg,Y,7/24/2015,11:22:00,1.248,1
516,2,2,3,119,teddybear_pos,teddybear_neg,teddybear_pos,negation,positive,distractor,target,R,teddybear_pos,Y,7/24/2015,11:22:00,1.402,1
517,2,2,3,120,flower_pos,flower_neg,flower_pos,negation,positive,distractor,target,R,flower_pos,Y,7/24/2015,11:22:00,0.851,1
518,2,2,3,1,cup_pos,cup_pos,cup_inhib,inhibition,control,target,distractor,L,cup_pos,Y,7/24/2015,11:22:00,1.098,1
519,2,2,3,2,cup_pos,cup_pos,cup_inhib,inhibition,control,target,distractor,L,cup_pos,Y,7/24/2015,11:22:00,0.735,1
520,2,2,3,3,cup_pos,cup_pos,cup_inhib,inhibition,control,target,distractor,L,cup_pos,Y,7/24/2015,11:22:00,0.462,1
521,2,2,3,4,cup_pos,cup_inhib,cup_pos,inhibition,control,distractor,target,R,cup_pos,Y,7/24/2015,11:22:00,0.789,1
522,2,2,3,5,cup_pos,cup_inhib,cup_pos,inhibition,control,distractor,target,R,cup_pos,Y,7/24/2015,11:22:00,0.417,1
523,2,2,3,6,cup_pos,cup_pos,cup_inhib,inhibition,control,target,distractor,L,cup_pos,Y,7/24/2015,11:22:00,0.59,1
524,2,2,3,7,cup_inhib,cup_inhib,cup_pos,inhibition,inhib,target,distractor,L,cup_inhib,Y,7/24/2015,11:22:00,0.831,1
525,2,2,3,8,bird_pos,bird_pos,bird_inhib,inhibition,control,target,distractor,L,bird_pos,Y,7/24/2015,11:22:00,0.855,1
526,2,2,3,9,bird_pos,bird_inhib,bird_pos,inhibition,control,distractor,target,R,bird_pos,Y,7/24/2015,11:22:00,0.712,1
527,2,2,3,10,bird_pos,bird_inhib,bird_pos,inhibition,control,distractor,target,R,bird_pos,Y,7/24/2015,11:22:00,0.694,1
528,2,2,3,11,bird_pos,bird_inhib,bird_pos,inhibition,control,distractor,target,R,bird_pos,Y,7/24/2015,11:22:00,0.423,1
529,2,2,3,12,bird_pos,bird_inhib,bird_pos,inhibition,control,distractor,target,R,bird_pos,Y,7/24/2015,11:22:00,0.559,1
530,2,2,3,13,bird_pos,bird_inhib,bird_pos,inhibition,control,distractor,target,R,bird_pos,Y,7/24/2015,11:22:00,0.615,1
531,2,2,3,14,bird_inhib,bird_pos,bird_inhib,inhibition,inhib,distractor,target,R,bird_inhib,Y,7/24/2015,11:22:00,0.657,1
532,2,2,3,15,lamp_pos,lamp_pos,lamp_inhib,inhibition,control,target,distractor,L,lamp_pos,Y,7/24/2015,11:22:00,0.935,1
533,2,2,3,16,lamp_pos,lamp_inhib,lamp_pos,inhibition,control,distractor,target,R,lamp_pos,Y,7/24/2015,11:22:00,0.572,1
534,2,2,3,17,lamp_pos,lamp_pos,lamp_inhib,inhibition,control,target,distractor,L,lamp_pos,Y,7/24/2015,11:22:00,0.444,1
535,2,2,3,18,lamp_pos,lamp_pos,lamp_inhib,inhibition,control,target,distractor,L,lamp_pos,Y,7/24/2015,11:22:00,0.462,1
536,2,2,3,19,lamp_pos,lamp_inhib,lamp_pos,inhibition,control,distractor,target,R,lamp_pos,Y,7/24/2015,11:22:00,0.471,1
537,2,2,3,20,lamp_inhib,lamp_inhib,lamp_pos,inhibition,inhib,target,distractor,L,lamp_inhib,Y,7/24/2015,11:22:00,0.779,1
538,2,2,3,21,cookie_pos,cookie_pos,cookie_inhib,inhibition,control,target,distractor,L,cookie_pos,Y,7/24/2015,11:22:00,0.689,1
539,2,2,3,22,cookie_pos,cookie_pos,cookie_inhib,inhibition,control,target,distractor,L,cookie_pos,Y,7/24/2015,11:22:00,0.41,1
540,2,2,3,23,cookie_pos,cookie_pos,cookie_inhib,inhibition,control,target,distractor,L,cookie_pos,Y,7/24/2015,11:22:00,0.415,1
541,2,2,3,24,cookie_pos,cookie_inhib,cookie_pos,inhibition,control,distractor,target,R,cookie_pos,Y,7/24/2015,11:22:00,0.658,1
542,2,2,3,25,cookie_pos,cookie_inhib,cookie_pos,inhibition,control,distractor,target,R,cookie_pos,Y,7/24/2015,11:22:00,0.631,1
543,2,2,3,26,cookie_pos,cookie_pos,cookie_inhib,inhibition,control,target,distractor,L,cookie_pos,Y,7/24/2015,11:22:00,1.471,1
544,2,2,3,27,cookie_inhib,cookie_pos,cookie_inhib,inhibition,inhib,distractor,target,R,cookie_inhib,Y,7/24/2015,11:22:00,0.823,1
545,2,2,3,28,flower_pos,flower_pos,flower_inhib,inhibition,control,target,distractor,L,flower_pos,Y,7/24/2015,11:22:00,1.002,1
546,2,2,3,29,flower_pos,flower_inhib,flower_pos,inhibition,control,distractor,target,R,flower_pos,Y,7/24/2015,11:22:00,0.713,1
547,2,2,3,30,flower_pos,flower_pos,flower_inhib,inhibition,control,target,distractor,L,flower_pos,Y,7/24/2015,11:22:00,0.838,1
548,2,2,3,31,flower_pos,flower_inhib,flower_pos,inhibition,control,distractor,target,R,flower_pos,Y,7/24/2015,11:22:00,0.424,1
549,2,2,3,32,flower_pos,flower_pos,flower_inhib,inhibition,control,target,distractor,L,flower_pos,Y,7/24/2015,11:22:00,0.659,1
550,2,2,3,33,flower_pos,flower_inhib,flower_pos,inhibition,control,distractor,target,R,flower_pos,Y,7/24/2015,11:22:00,0.723,1
551,2,2,3,34,flower_inhib,flower_inhib,flower_pos,inhibition,inhib,target,distractor,L,flower_inhib,Y,7/24/2015,11:22:00,0.684,1
552,2,2,3,35,cat_pos,cat_pos,cat_inhib,inhibition,control,target,distractor,L,cat_pos,Y,7/24/2015,11:22:00,0.915,1
553,2,2,3,36,cat_pos,cat_inhib,cat_pos,inhibition,control,distractor,target,R,cat_pos,Y,7/24/2015,11:22:00,0.455,1
554,2,2,3,37,cat_pos,cat_pos,cat_inhib,inhibition,control,target,distractor,L,cat_pos,Y,7/24/2015,11:22:00,0.474,1
555,2,2,3,38,cat_pos,cat_pos,cat_inhib,inhibition,control,target,distractor,L,cat_pos,Y,7/24/2015,11:22:00,0.43,1
556,2,2,3,39,cat_pos,cat_pos,cat_inhib,inhibition,control,target,distractor,L,cat_pos,Y,7/24/2015,11:22:00,0.354,1
557,2,2,3,40,cat_pos,cat_inhib,cat_pos,inhibition,control,distractor,target,R,cat_pos,Y,7/24/2015,11:22:00,0.543,1
558,2,2,3,41,cat_inhib,cat_pos,cat_inhib,inhibition,inhib,distractor,target,R,cat_inhib,Y,7/24/2015,11:22:00,0.556,1
559,2,2,3,42,bicycle_pos,bicycle_pos,bicycle_inhib,inhibition,control,target,distractor,L,bicycle_pos,Y,7/24/2015,11:22:00,1.064,1
560,2,2,3,43,bicycle_pos,bicycle_inhib,bicycle_pos,inhibition,control,distractor,target,R,bicycle_pos,Y,7/24/2015,11:22:00,0.469,1
561,2,2,3,44,bicycle_pos,bicycle_inhib,bicycle_pos,inhibition,control,distractor,target,R,bicycle_pos,Y,7/24/2015,11:22:00,0.368,1
562,2,2,3,45,bicycle_pos,bicycle_inhib,bicycle_pos,inhibition,control,distractor,target,R,bicycle_pos,Y,7/24/2015,11:22:00,0.497,1
563,2,2,3,46,bicycle_pos,bicycle_pos,bicycle_inhib,inhibition,control,target,distractor,L,bicycle_pos,Y,7/24/2015,11:22:00,0.439,1
564,2,2,3,47,bicycle_pos,bicycle_inhib,bicycle_pos,inhibition,control,distractor,target,R,bicycle_pos,Y,7/24/2015,11:22:00,0.473,1
565,2,2,3,48,bicycle_inhib,bicycle_inhib,bicycle_pos,inhibition,inhib,target,distractor,L,bicycle_inhib,Y,7/24/2015,11:22:00,0.907,1
566,2,2,3,49,banana_pos,banana_inhib,banana_pos,inhibition,control,distractor,target,R,banana_pos,Y,7/24/2015,11:22:00,0.772,1
567,2,2,3,50,banana_pos,banana_inhib,banana_pos,inhibition,control,distractor,target,R,banana_pos,Y,7/24/2015,11:22:00,0.435,1
568,2,2,3,51,banana_pos,banana_inhib,banana_pos,inhibition,control,distractor,target,R,banana_pos,Y,7/24/2015,11:22:00,0.346,1
569,2,2,3,52,banana_pos,banana_inhib,banana_pos,inhibition,control,distractor,target,R,banana_pos,Y,7/24/2015,11:22:00,0.347,1
570,2,2,3,53,banana_pos,banana_inhib,banana_pos,inhibition,control,distractor,target,R,banana_pos,Y,7/24/2015,11:22:00,0.532,1
571,2,2,3,54,banana_pos,banana_inhib,banana_pos,inhibition,control,distractor,target,R,banana_pos,Y,7/24/2015,11:22:00,0.409,1
572,2,2,3,55,banana_inhib,banana_pos,banana_inhib,inhibition,inhib,distractor,target,R,banana_inhib,Y,7/24/2015,11:22:00,0.893,1
573,2,2,3,56,teddybear_pos,teddybear_inhib,teddybear_pos,inhibition,control,distractor,target,R,teddybear_pos,Y,7/24/2015,11:22:00,0.633,1
574,2,2,3,57,teddybear_pos,teddybear_inhib,teddybear_pos,inhibition,control,distractor,target,R,teddybear_pos,Y,7/24/2015,11:22:00,0.393,1
575,2,2,3,58,teddybear_pos,teddybear_inhib,teddybear_pos,inhibition,control,distractor,target,R,teddybear_pos,Y,7/24/2015,11:22:00,0.376,1
576,2,2,3,59,teddybear_pos,teddybear_inhib,teddybear_pos,inhibition,control,distractor,target,R,teddybear_pos,Y,7/24/2015,11:22:00,0.441,1
577,2,2,3,60,teddybear_pos,teddybear_inhib,teddybear_pos,inhibition,control,distractor,target,R,teddybear_pos,Y,7/24/2015,11:22:00,0.828,1
578,2,2,3,61,teddybear_inhib,teddybear_inhib,teddybear_pos,inhibition,inhib,target,distractor,L,teddybear_inhib,Y,7/24/2015,11:22:00,0.718,1
579,2,2,3,62,dog_pos,dog_inhib,dog_pos,inhibition,control,distractor,target,R,dog_pos,Y,7/24/2015,11:22:00,1.048,1
580,2,2,3,63,dog_pos,dog_inhib,dog_pos,inhibition,control,distractor,target,R,dog_pos,Y,7/24/2015,11:22:00,0.361,1
581,2,2,3,64,dog_pos,dog_pos,dog_inhib,inhibition,control,target,distractor,L,dog_pos,Y,7/24/2015,11:22:00,0.542,1
582,2,2,3,65,dog_pos,dog_pos,dog_inhib,inhibition,control,target,distractor,L,dog_pos,Y,7/24/2015,11:22:00,0.448,1
583,2,2,3,66,dog_pos,dog_inhib,dog_pos,inhibition,control,distractor,target,R,dog_pos,Y,7/24/2015,11:22:00,0.408,1
584,2,2,3,67,dog_pos,dog_pos,dog_inhib,inhibition,control,target,distractor,L,dog_pos,Y,7/24/2015,11:22:00,0.429,1
585,2,2,3,68,dog_inhib,dog_pos,dog_inhib,inhibition,inhib,distractor,target,R,dog_inhib,Y,7/24/2015,11:22:00,0.764,1
586,2,2,3,69,car_pos,car_inhib,car_pos,inhibition,control,distractor,target,R,car_pos,Y,7/24/2015,11:22:00,1.154,1
587,2,2,3,70,car_pos,car_inhib,car_pos,inhibition,control,distractor,target,R,car_pos,Y,7/24/2015,11:22:00,0.536,1
588,2,2,3,71,car_pos,car_inhib,car_pos,inhibition,control,distractor,target,R,car_pos,Y,7/24/2015,11:22:00,0.45,1
589,2,2,3,72,car_pos,car_pos,car_inhib,inhibition,control,target,distractor,L,car_pos,Y,7/24/2015,11:22:00,0.782,1
590,2,2,3,73,car_pos,car_pos,car_inhib,inhibition,control,target,distractor,L,car_pos,Y,7/24/2015,11:22:00,0.474,1
591,2,2,3,74,car_inhib,car_pos,car_inhib,inhibition,inhib,distractor,target,R,car_inhib,Y,7/24/2015,11:22:00,0.828,1
592,2,2,3,75,apple_pos,apple_pos,apple_inhib,inhibition,control,target,distractor,L,apple_pos,Y,7/24/2015,11:22:00,0.72,1
593,2,2,3,76,apple_pos,apple_pos,apple_inhib,inhibition,control,target,distractor,L,apple_pos,Y,7/24/2015,11:22:00,0.335,1
594,2,2,3,77,apple_pos,apple_inhib,apple_pos,inhibition,control,distractor,target,R,apple_pos,Y,7/24/2015,11:22:00,0.459,1
595,2,2,3,78,apple_pos,apple_pos,apple_inhib,inhibition,control,target,distractor,L,apple_pos,Y,7/24/2015,11:22:00,0.402,1
596,2,2,3,79,apple_pos,apple_inhib,apple_pos,inhibition,control,distractor,target,R,apple_pos,Y,7/24/2015,11:22:00,0.355,1
597,2,2,3,80,apple_pos,apple_inhib,apple_pos,inhibition,control,distractor,target,R,apple_pos,Y,7/24/2015,11:22:00,0.55,1
598,2,2,3,81,apple_inhib,apple_pos,apple_inhib,inhibition,inhib,distractor,target,R,apple_inhib,Y,7/24/2015,11:22:00,0.637,1
599,2,2,3,82,car_pos,car_pos,car_inhib,inhibition,control,target,distractor,L,car_pos,Y,7/24/2015,11:22:00,0.702,1
600,2,2,3,83,car_pos,car_pos,car_inhib,inhibition,control,target,distractor,L,car_pos,Y,7/24/2015,11:22:00,0.433,1
601,2,2,3,84,car_pos,car_inhib,car_pos,inhibition,control,distractor,target,R,car_pos,Y,7/24/2015,11:22:00,0.474,1
602,2,2,3,85,car_pos,car_inhib,car_pos,inhibition,control,distractor,target,R,car_pos,Y,7/24/2015,11:22:00,0.586,1
603,2,2,3,86,car_pos,car_pos,car_inhib,inhibition,control,target,distractor,L,car_pos,Y,7/24/2015,11:22:00,0.478,1
604,2,2,3,87,car_inhib,car_inhib,car_pos,inhibition,inhib,target,distractor,L,car_inhib,Y,7/24/2015,11:22:00,0.815,1
605,2,2,3,88,bird_pos,bird_pos,bird_inhib,inhibition,control,target,distractor,L,bird_pos,Y,7/24/2015,11:22:00,0.651,1
606,2,2,3,89,bird_pos,bird_pos,bird_inhib,inhibition,control,target,distractor,L,bird_pos,Y,7/24/2015,11:22:00,0.559,1
607,2,2,3,90,bird_pos,bird_pos,bird_inhib,inhibition,control,target,distractor,L,bird_pos,Y,7/24/2015,11:22:00,0.563,1
608,2,2,3,91,bird_pos,bird_pos,bird_inhib,inhibition,control,target,distractor,L,bird_pos,Y,7/24/2015,11:22:00,0.403,1
609,2,2,3,92,bird_pos,bird_inhib,bird_pos,inhibition,control,distractor,target,R,bird_pos,Y,7/24/2015,11:22:00,0.423,1
610,2,2,3,93,bird_inhib,bird_inhib,bird_pos,inhibition,inhib,target,distractor,R,bird_pos,N,7/24/2015,11:22:00,0.445,0
611,2,2,3,94,dog_pos,dog_pos,dog_inhib,inhibition,control,target,distractor,L,dog_pos,Y,7/24/2015,11:22:00,1.04,1
612,2,2,3,95,dog_pos,dog_pos,dog_inhib,inhibition,control,target,distractor,L,dog_pos,Y,7/24/2015,11:22:00,0.644,1
613,2,2,3,96,dog_pos,dog_pos,dog_inhib,inhibition,control,target,distractor,L,dog_pos,Y,7/24/2015,11:22:00,0.37,1
614,2,2,3,97,dog_pos,dog_inhib,dog_pos,inhibition,control,distractor,target,R,dog_pos,Y,7/24/2015,11:22:00,0.515,1
615,2,2,3,98,dog_pos,dog_inhib,dog_pos,inhibition,control,distractor,target,R,dog_pos,Y,7/24/2015,11:22:00,0.359,1
616,2,2,3,99,dog_pos,dog_pos,dog_inhib,inhibition,control,target,distractor,L,dog_pos,Y,7/24/2015,11:22:00,0.682,1
617,2,2,3,100,dog_inhib,dog_pos,dog_inhib,inhibition,inhib,distractor,target,R,dog_inhib,Y,7/24/2015,11:22:00,0.706,1
618,2,2,3,101,apple_pos,apple_inhib,apple_pos,inhibition,control,distractor,target,R,apple_pos,Y,7/24/2015,11:22:00,0.88,1
619,2,2,3,102,apple_pos,apple_pos,apple_inhib,inhibition,control,target,distractor,L,apple_pos,Y,7/24/2015,11:22:00,0.46,1
620,2,2,3,103,apple_pos,apple_inhib,apple_pos,inhibition,control,distractor,target,R,apple_pos,Y,7/24/2015,11:22:00,0.337,1
621,2,2,3,104,apple_pos,apple_inhib,apple_pos,inhibition,control,distractor,target,R,apple_pos,Y,7/24/2015,11:22:00,0.602,1
622,2,2,3,105,apple_pos,apple_inhib,apple_pos,inhibition,control,distractor,target,R,apple_pos,Y,7/24/2015,11:22:00,0.385,1
623,2,2,3,106,apple_pos,apple_pos,apple_inhib,inhibition,control,target,distractor,L,apple_pos,Y,7/24/2015,11:22:00,0.49,1
624,2,2,3,107,apple_inhib,apple_inhib,apple_pos,inhibition,inhib,target,distractor,L,apple_inhib,Y,7/24/2015,11:22:00,0.806,1
625,2,2,3,108,flower_pos,flower_pos,flower_inhib,inhibition,control,target,distractor,L,flower_pos,Y,7/24/2015,11:22:00,0.679,1
626,2,2,3,109,flower_pos,flower_inhib,flower_pos,inhibition,control,distractor,target,R,flower_pos,Y,7/24/2015,11:22:00,0.427,1
627,2,2,3,110,flower_pos,flower_inhib,flower_pos,inhibition,control,distractor,target,R,flower_pos,Y,7/24/2015,11:22:00,0.362,1
628,2,2,3,111,flower_pos,flower_pos,flower_inhib,inhibition,control,target,distractor,L,flower_pos,Y,7/24/2015,11:22:00,0.462,1
629,2,2,3,112,flower_pos,flower_inhib,flower_pos,inhibition,control,distractor,target,R,flower_pos,Y,7/24/2015,11:22:00,0.531,1
630,2,2,3,113,flower_pos,flower_inhib,flower_pos,inhibition,control,distractor,target,R,flower_pos,Y,7/24/2015,11:22:00,0.42,1
631,2,2,3,114,flower_inhib,flower_inhib,flower_pos,inhibition,inhib,target,distractor,L,flower_inhib,Y,7/24/2015,11:22:00,0.744,1
632,2,2,3,115,teddybear_pos,teddybear_pos,teddybear_inhib,inhibition,control,target,distractor,L,teddybear_pos,Y,7/24/2015,11:22:00,0.639,1
633,2,2,3,116,teddybear_pos,teddybear_inhib,teddybear_pos,inhibition,control,distractor,target,R,teddybear_pos,Y,7/24/2015,11:22:00,0.423,1
634,2,2,3,117,teddybear_pos,teddybear_pos,teddybear_inhib,inhibition,control,target,distractor,L,teddybear_pos,Y,7/24/2015,11:22:00,0.408,1
635,2,2,3,118,teddybear_pos,teddybear_pos,teddybear_inhib,inhibition,control,target,distractor,L,teddybear_pos,Y,7/24/2015,11:22:00,0.498,1
636,2,2,3,119,teddybear_pos,teddybear_pos,teddybear_inhib,inhibition,control,target,distractor,L,teddybear_pos,Y,7/24/2015,11:22:00,0.647,1
637,2,2,3,120,teddybear_inhib,teddybear_inhib,teddybear_pos,inhibition,inhib,target,distractor,L,teddybear_inhib,Y,7/24/2015,11:22:00,0.567,1
638,2,2,3,121,cat_pos,cat_pos,cat_inhib,inhibition,control,target,distractor,L,cat_pos,Y,7/24/2015,11:22:00,0.898,1
639,2,2,3,122,cat_pos,cat_inhib,cat_pos,inhibition,control,distractor,target,R,cat_pos,Y,7/24/2015,11:22:00,0.434,1
640,2,2,3,123,cat_pos,cat_inhib,cat_pos,inhibition,control,distractor,target,R,cat_pos,Y,7/24/2015,11:22:00,0.416,1
641,2,2,3,124,cat_pos,cat_inhib,cat_pos,inhibition,control,distractor,target,R,cat_pos,Y,7/24/2015,11:22:00,0.724,1
642,2,2,3,125,cat_pos,cat_pos,cat_inhib,inhibition,control,target,distractor,L,cat_pos,Y,7/24/2015,11:22:00,0.435,1
643,2,2,3,126,cat_inhib,cat_pos,cat_inhib,inhibition,inhib,distractor,target,R,cat_inhib,Y,7/24/2015,11:22:00,0.651,1
644,2,2,3,127,lamp_pos,lamp_inhib,lamp_pos,inhibition,control,distractor,target,R,lamp_pos,Y,7/24/2015,11:22:00,0.719,1
645,2,2,3,128,lamp_pos,lamp_inhib,lamp_pos,inhibition,control,distractor,target,R,lamp_pos,Y,7/24/2015,11:22:00,0.36,1
646,2,2,3,129,lamp_pos,lamp_inhib,lamp_pos,inhibition,control,distractor,target,R,lamp_pos,Y,7/24/2015,11:22:00,0.426,1
647,2,2,3,130,lamp_pos,lamp_pos,lamp_inhib,inhibition,control,target,distractor,L,lamp_pos,Y,7/24/2015,11:22:00,0.449,1
648,2,2,3,131,lamp_pos,lamp_pos,lamp_inhib,inhibition,control,target,distractor,L,lamp_pos,Y,7/24/2015,11:22:00,0.417,1
649,2,2,3,132,lamp_pos,lamp_pos,lamp_inhib,inhibition,control,target,distractor,L,lamp_pos,Y,7/24/2015,11:22:00,0.547,1
650,2,2,3,133,lamp_inhib,lamp_pos,lamp_inhib,inhibition,inhib,distractor,target,R,lamp_inhib,Y,7/24/2015,11:22:00,0.536,1
651,2,2,3,134,bicycle_pos,bicycle_inhib,bicycle_pos,inhibition,control,distractor,target,R,bicycle_pos,Y,7/24/2015,11:22:00,0.718,1
652,2,2,3,135,bicycle_pos,bicycle_pos,bicycle_inhib,inhibition,control,target,distractor,L,bicycle_pos,Y,7/24/2015,11:22:00,0.549,1
653,2,2,3,136,bicycle_pos,bicycle_inhib,bicycle_pos,inhibition,control,distractor,target,L,bicycle_inhib,N,7/24/2015,11:22:00,0.465,0
654,2,2,3,137,bicycle_pos,bicycle_pos,bicycle_inhib,inhibition,control,target,distractor,L,bicycle_pos,Y,7/24/2015,11:22:00,0.643,1
655,2,2,3,138,bicycle_pos,bicycle_pos,bicycle_inhib,inhibition,control,target,distractor,L,bicycle_pos,Y,7/24/2015,11:22:00,0.715,1
656,2,2,3,139,bicycle_pos,bicycle_inhib,bicycle_pos,inhibition,control,distractor,target,R,bicycle_pos,Y,7/24/2015,11:22:00,0.692,1
657,2,2,3,140,bicycle_inhib,bicycle_pos,bicycle_inhib,inhibition,inhib,distractor,target,R,bicycle_inhib,Y,7/24/2015,11:22:00,0.586,1
658,2,2,3,141,cup_pos,cup_inhib,cup_pos,inhibition,control,distractor,target,R,cup_pos,Y,7/24/2015,11:22:00,0.873,1
659,2,2,3,142,cup_pos,cup_pos,cup_inhib,inhibition,control,target,distractor,L,cup_pos,Y,7/24/2015,11:22:00,0.63,1
660,2,2,3,143,cup_pos,cup_pos,cup_inhib,inhibition,control,target,distractor,L,cup_pos,Y,7/24/2015,11:22:00,0.442,1
661,2,2,3,144,cup_pos,cup_inhib,cup_pos,inhibition,control,distractor,target,R,cup_pos,Y,7/24/2015,11:22:00,0.487,1
662,2,2,3,145,cup_pos,cup_pos,cup_inhib,inhibition,control,target,distractor,L,cup_pos,Y,7/24/2015,11:22:00,0.481,1
663,2,2,3,146,cup_pos,cup_pos,cup_inhib,inhibition,control,target,distractor,L,cup_pos,Y,7/24/2015,11:22:00,0.375,1
664,2,2,3,147,cup_inhib,cup_inhib,cup_pos,inhibition,inhib,target,distractor,L,cup_inhib,Y,7/24/2015,11:22:00,0.736,1
665,2,2,3,148,banana_pos,banana_inhib,banana_pos,inhibition,control,distractor,target,R,banana_pos,Y,7/24/2015,11:22:00,0.913,1
666,2,2,3,149,banana_pos,banana_pos,banana_inhib,inhibition,control,target,distractor,L,banana_pos,Y,7/24/2015,11:22:00,0.821,1
667,2,2,3,150,banana_pos,banana_inhib,banana_pos,inhibition,control,distractor,target,R,banana_pos,Y,7/24/2015,11:22:00,0.505,1
668,2,2,3,151,banana_pos,banana_pos,banana_inhib,inhibition,control,target,distractor,L,banana_pos,Y,7/24/2015,11:22:00,0.481,1
669,2,2,3,152,banana_pos,banana_pos,banana_inhib,inhibition,control,target,distractor,L,banana_pos,Y,7/24/2015,11:22:00,0.715,1
670,2,2,3,153,banana_pos,banana_pos,banana_inhib,inhibition,control,target,distractor,L,banana_pos,Y,7/24/2015,11:22:00,0.618,1
671,2,2,3,154,banana_inhib,banana_pos,banana_inhib,inhibition,inhib,distractor,target,R,banana_inhib,Y,7/24/2015,11:22:00,0.53,1
672,2,2,3,155,cookie_pos,cookie_inhib,cookie_pos,inhibition,control,distractor,target,R,cookie_pos,Y,7/24/2015,11:22:00,0.638,1
673,2,2,3,156,cookie_pos,cookie_pos,cookie_inhib,inhibition,control,target,distractor,L,cookie_pos,Y,7/24/2015,11:22:00,0.61,1
674,2,2,3,157,cookie_pos,cookie_pos,cookie_inhib,inhibition,control,target,distractor,L,cookie_pos,Y,7/24/2015,11:22:00,0.451,1
675,2,2,3,158,cookie_pos,cookie_pos,cookie_inhib,inhibition,control,target,distractor,L,cookie_pos,Y,7/24/2015,11:22:00,0.648,1
676,2,2,3,159,cookie_pos,cookie_pos,cookie_inhib,inhibition,control,target,distractor,L,cookie_pos,Y,7/24/2015,11:22:00,0.464,1
677,2,2,3,160,cookie_pos,cookie_pos,cookie_inhib,inhibition,control,target,distractor,L,cookie_pos,Y,7/24/2015,11:22:00,0.457,1
678,2,2,3,161,cookie_inhib,cookie_pos,cookie_inhib,inhibition,inhib,distractor,target,R,cookie_inhib,Y,7/24/2015,11:22:00,0.632,1
679,2,2,3,1,cat_control,cat_foil,cat_control,implicature,unambiguous,distractor,target,R,cat_control,Y,7/24/2015,11:22:00,2.468,1
681,2,2,3,3,cup_implic,cup_control,cup_implic,implicature,implicature,distractor,target,R,cup_implic,Y,7/24/2015,11:22:00,1.166,1
682,2,2,3,4,teddybear_implic,teddybear_implic,teddybear_control,implicature,implicature,target,distractor,L,teddybear_implic,Y,7/24/2015,11:22:00,2.017,1
683,2,2,3,5,bird_control,bird_control,bird_foil,implicature,unambiguous,target,distractor,L,bird_control,Y,7/24/2015,11:22:00,1.132,1
684,2,2,3,6,apple_implic,apple_implic,apple_control,implicature,implicature,target,distractor,L,apple_implic,Y,7/24/2015,11:22:00,1.308,1
685,2,2,3,7,dog_implic,dog_implic,dog_control,implicature,implicature,target,distractor,L,dog_implic,Y,7/24/2015,11:22:00,0.89,1
686,2,2,3,8,cookie_control,cookie_foil,cookie_control,implicature,unambiguous,distractor,target,R,cookie_control,Y,7/24/2015,11:22:00,1.099,1
687,2,2,3,9,banana_implic,banana_implic,banana_control,implicature,implicature,target,distractor,L,banana_implic,Y,7/24/2015,11:22:00,1.07,1
688,2,2,3,10,flower_implic,flower_implic,flower_control,implicature,implicature,target,distractor,L,flower_implic,Y,7/24/2015,11:22:00,0.77,1
689,2,2,3,11,car_implic,car_control,car_implic,implicature,implicature,distractor,target,R,car_implic,Y,7/24/2015,11:22:00,1.347,1
690,2,2,3,12,lamp_control,lamp_control,lamp_foil,implicature,unambiguous,target,distractor,L,lamp_control,Y,7/24/2015,11:22:00,1.075,1
691,2,2,3,13,apple_control,apple_control,apple_foil,implicature,unambiguous,target,distractor,L,apple_control,Y,7/24/2015,11:22:00,0.794,1
692,2,2,3,14,dog_control,dog_control,dog_foil,implicature,unambiguous,target,distractor,L,dog_control,Y,7/24/2015,11:22:00,0.947,1
693,2,2,3,15,cup_implic,cup_control,cup_implic,implicature,implicature,distractor,target,R,cup_implic,Y,7/24/2015,11:22:00,0.79,1
694,2,2,3,16,teddybear_control,teddybear_control,teddybear_foil,implicature,unambiguous,target,distractor,L,teddybear_control,Y,7/24/2015,11:22:00,1.012,1
695,2,2,3,17,bicycle_implic,bicycle_implic,bicycle_control,implicature,implicature,target,distractor,L,bicycle_implic,Y,7/24/2015,11:22:00,0.974,1
696,2,2,3,18,flower_control,flower_foil,flower_control,implicature,unambiguous,distractor,target,R,flower_control,Y,7/24/2015,11:22:00,1.106,1
697,2,2,3,19,cat_control,cat_control,cat_foil,implicature,unambiguous,target,distractor,L,cat_control,Y,7/24/2015,11:22:00,1.138,1
698,2,2,3,20,car_control,car_control,car_foil,implicature,unambiguous,target,distractor,L,car_control,Y,7/24/2015,11:22:00,0.982,1
699,2,2,3,21,lamp_implic,lamp_implic,lamp_control,implicature,implicature,target,distractor,L,lamp_implic,Y,7/24/2015,11:22:00,1.504,1
700,2,2,3,22,banana_control,banana_control,banana_foil,implicature,unambiguous,target,distractor,L,banana_control,Y,7/24/2015,11:22:00,0.993,1
701,2,2,3,23,bird_implic,bird_control,bird_implic,implicature,implicature,distractor,target,R,bird_implic,Y,7/24/2015,11:22:00,0.784,1
702,2,2,3,24,cookie_implic,cookie_control,cookie_implic,implicature,implicature,distractor,target,R,cookie_implic,Y,7/24/2015,11:22:00,0.95,1
703,2,2,3,25,dog_implic,dog_implic,dog_control,implicature,implicature,target,distractor,L,dog_implic,Y,7/24/2015,11:22:00,1.045,1
704,2,2,3,26,lamp_control,lamp_foil,lamp_control,implicature,unambiguous,distractor,target,R,lamp_control,Y,7/24/2015,11:22:00,0.987,1
705,2,2,3,27,cookie_control,cookie_control,cookie_foil,implicature,unambiguous,target,distractor,L,cookie_control,Y,7/24/2015,11:22:00,0.975,1
706,2,2,3,28,car_control,car_foil,car_control,implicature,unambiguous,distractor,target,R,car_control,Y,7/24/2015,11:22:00,1.181,1
707,2,2,3,29,cup_implic,cup_control,cup_implic,implicature,implicature,distractor,target,R,cup_implic,Y,7/24/2015,11:22:00,1.04,1
708,2,2,3,30,bicycle_control,bicycle_foil,bicycle_control,implicature,unambiguous,distractor,target,R,bicycle_control,Y,7/24/2015,11:22:00,1.054,1
709,2,2,3,31,teddybear_implic,teddybear_control,teddybear_implic,implicature,implicature,distractor,target,R,teddybear_implic,Y,7/24/2015,11:22:00,1.014,1
710,2,2,3,32,flower_implic,flower_control,flower_implic,implicature,implicature,distractor,target,R,flower_implic,Y,7/24/2015,11:22:00,1.092,1
711,2,2,3,33,cat_implic,cat_implic,cat_control,implicature,implicature,target,distractor,L,cat_implic,Y,7/24/2015,11:22:00,1.502,1
712,2,2,3,34,apple_implic,apple_control,apple_implic,implicature,implicature,distractor,target,R,apple_implic,Y,7/24/2015,11:22:00,0.731,1
713,2,2,3,35,banana_control,banana_control,banana_foil,implicature,unambiguous,target,distractor,L,banana_control,Y,7/24/2015,11:22:00,0.946,1
714,2,2,3,36,bird_control,bird_foil,bird_control,implicature,unambiguous,distractor,target,R,bird_control,Y,7/24/2015,11:22:00,1.206,1
715,2,2,3,37,teddybear_implic,teddybear_control,teddybear_implic,implicature,implicature,distractor,target,R,teddybear_implic,Y,7/24/2015,11:22:00,0.759,1
716,2,2,3,38,cup_control,cup_foil,cup_control,implicature,unambiguous,distractor,target,R,cup_control,Y,7/24/2015,11:22:00,0.949,1
717,2,2,3,39,car_implic,car_implic,car_control,implicature,implicature,target,distractor,L,car_implic,Y,7/24/2015,11:22:00,0.795,1
718,2,2,3,40,banana_implic,banana_implic,banana_control,implicature,implicature,target,distractor,L,banana_implic,Y,7/24/2015,11:22:00,0.839,1
719,2,2,3,41,lamp_control,lamp_foil,lamp_control,implicature,unambiguous,distractor,target,R,lamp_control,Y,7/24/2015,11:22:00,0.777,1
720,2,2,3,42,apple_implic,apple_implic,apple_control,implicature,implicature,target,distractor,L,apple_implic,Y,7/24/2015,11:22:00,0.914,1
721,2,2,3,43,cookie_control,cookie_foil,cookie_control,implicature,unambiguous,distractor,target,R,cookie_control,Y,7/24/2015,11:22:00,0.713,1
722,2,2,3,44,cat_control,cat_foil,cat_control,implicature,unambiguous,distractor,target,R,cat_control,Y,7/24/2015,11:22:00,0.721,1
723,2,2,3,45,bird_implic,bird_implic,bird_control,implicature,implicature,target,distractor,L,bird_implic,Y,7/24/2015,11:22:00,0.839,1
724,2,2,3,46,flower_control,flower_foil,flower_control,implicature,unambiguous,distractor,target,R,flower_control,Y,7/24/2015,11:22:00,1.58,1
725,2,2,3,47,dog_control,dog_control,dog_foil,implicature,unambiguous,target,distractor,L,dog_control,Y,7/24/2015,11:22:00,2.761,1
726,2,2,3,48,bicycle_implic,bicycle_control,bicycle_implic,implicature,implicature,distractor,target,R,bicycle_implic,Y,7/24/2015,11:22:00,0.73,1
727,2,2,3,49,bird_control,bird_control,bird_foil,implicature,unambiguous,target,distractor,L,bird_control,Y,7/24/2015,11:22:00,1.002,1
728,2,2,3,50,flower_control,flower_control,flower_foil,implicature,unambiguous,target,distractor,L,flower_control,Y,7/24/2015,11:22:00,2.346,1
729,2,2,3,51,car_control,car_control,car_foil,implicature,unambiguous,target,distractor,L,car_control,Y,7/24/2015,11:22:00,0.874,1
730,2,2,3,52,lamp_implic,lamp_control,lamp_implic,implicature,implicature,distractor,target,R,lamp_implic,Y,7/24/2015,11:22:00,0.969,1
731,2,2,3,53,bicycle_control,bicycle_control,bicycle_foil,implicature,unambiguous,target,distractor,L,bicycle_control,Y,7/24/2015,11:22:00,1.538,1
732,2,2,3,54,dog_control,dog_foil,dog_control,implicature,unambiguous,distractor,target,R,dog_control,Y,7/24/2015,11:22:00,0.962,1
733,2,2,3,55,teddybear_implic,teddybear_implic,teddybear_control,implicature,implicature,target,distractor,L,teddybear_implic,Y,7/24/2015,11:22:00,1.447,1
734,2,2,3,56,cookie_implic,cookie_control,cookie_implic,implicature,implicature,distractor,target,R,cookie_implic,Y,7/24/2015,11:22:00,0.833,1
735,2,2,3,57,cat_control,cat_control,cat_foil,implicature,unambiguous,target,distractor,L,cat_control,Y,7/24/2015,11:22:00,0.699,1
736,2,2,3,58,apple_implic,apple_control,apple_implic,implicature,implicature,distractor,target,R,apple_implic,Y,7/24/2015,11:22:00,0.785,1
737,2,2,3,59,cup_control,cup_control,cup_foil,implicature,unambiguous,target,distractor,L,cup_control,Y,7/24/2015,11:22:00,0.948,1
738,2,2,3,60,banana_control,banana_foil,banana_control,implicature,unambiguous,distractor,target,R,banana_control,Y,7/24/2015,11:22:00,0.612,1
739,2,2,3,61,lamp_implic,lamp_control,lamp_implic,implicature,implicature,distractor,target,R,lamp_implic,Y,7/24/2015,11:22:00,0.993,1
740,2,2,3,62,dog_control,dog_foil,dog_control,implicature,unambiguous,distractor,target,R,dog_control,Y,7/24/2015,11:22:00,0.619,1
741,2,2,3,63,bird_implic,bird_control,bird_implic,implicature,implicature,distractor,target,R,bird_implic,Y,7/24/2015,11:22:00,0.571,1
742,2,2,3,64,car_implic,car_implic,car_control,implicature,implicature,target,distractor,L,car_implic,Y,7/24/2015,11:22:00,0.658,1
743,2,2,3,65,flower_implic,flower_control,flower_implic,implicature,implicature,distractor,target,R,flower_implic,Y,7/24/2015,11:22:00,0.582,1
744,2,2,3,66,banana_implic,banana_control,banana_implic,implicature,implicature,distractor,target,R,banana_implic,Y,7/24/2015,11:22:00,0.888,1
745,2,2,3,67,cat_implic,cat_control,cat_implic,implicature,implicature,distractor,target,R,cat_implic,Y,7/24/2015,11:22:00,1.508,1
746,2,2,3,68,cup_implic,cup_control,cup_implic,implicature,implicature,distractor,target,R,cup_implic,Y,7/24/2015,11:22:00,0.561,1
747,2,2,3,69,apple_implic,apple_implic,apple_control,implicature,implicature,target,distractor,L,apple_implic,Y,7/24/2015,11:22:00,0.743,1
748,2,2,3,70,cookie_implic,cookie_control,cookie_implic,implicature,implicature,distractor,target,R,cookie_implic,Y,7/24/2015,11:22:00,0.55,1
749,2,2,3,71,teddybear_control,teddybear_control,teddybear_foil,implicature,unambiguous,target,distractor,L,teddybear_control,Y,7/24/2015,11:22:00,0.896,1
750,2,2,3,72,bicycle_control,bicycle_control,bicycle_foil,implicature,unambiguous,target,distractor,L,bicycle_control,Y,7/24/2015,11:22:00,0.682,1
751,2,2,3,73,cat_control,cat_foil,cat_control,implicature,unambiguous,distractor,target,R,cat_control,Y,7/24/2015,11:22:00,1.015,1
752,2,2,3,74,cup_implic,cup_implic,cup_control,implicature,implicature,target,distractor,L,cup_implic,Y,7/24/2015,11:22:00,1.421,1
753,2,2,3,75,car_control,car_foil,car_control,implicature,unambiguous,distractor,target,R,car_control,Y,7/24/2015,11:22:00,1.678,1
754,2,2,3,76,flower_control,flower_foil,flower_control,implicature,unambiguous,distractor,target,R,flower_control,Y,7/24/2015,11:22:00,0.923,1
755,2,2,3,77,cookie_control,cookie_control,cookie_foil,implicature,unambiguous,target,distractor,L,cookie_control,Y,7/24/2015,11:22:00,0.892,1
756,2,2,3,78,teddybear_control,teddybear_control,teddybear_foil,implicature,unambiguous,target,distractor,L,teddybear_control,Y,7/24/2015,11:22:00,1.06,1
757,2,2,3,79,bird_control,bird_control,bird_foil,implicature,unambiguous,target,distractor,L,bird_control,Y,7/24/2015,11:22:00,0.783,1
758,2,2,3,80,dog_implic,dog_implic,dog_control,implicature,implicature,target,distractor,L,dog_implic,Y,7/24/2015,11:22:00,1.38,1
759,2,2,3,81,bicycle_implic,bicycle_control,bicycle_implic,implicature,implicature,distractor,target,R,bicycle_implic,Y,7/24/2015,11:22:00,0.759,1
760,2,2,3,82,lamp_control,lamp_foil,lamp_control,implicature,unambiguous,distractor,target,R,lamp_control,Y,7/24/2015,11:22:00,0.892,1
761,2,2,3,83,apple_implic,apple_implic,apple_control,implicature,implicature,target,distractor,L,apple_implic,Y,7/24/2015,11:22:00,1.737,1
762,2,2,3,84,banana_implic,banana_control,banana_implic,implicature,implicature,distractor,target,R,banana_implic,Y,7/24/2015,11:22:00,0.691,1
763,2,2,3,85,car_implic,car_control,car_implic,implicature,implicature,distractor,target,R,car_implic,Y,7/24/2015,11:22:00,1.377,1
764,2,2,3,86,apple_implic,apple_control,apple_implic,implicature,implicature,distractor,target,R,apple_implic,Y,7/24/2015,11:22:00,0.665,1
765,2,2,3,87,banana_implic,banana_control,banana_implic,implicature,implicature,distractor,target,R,banana_implic,Y,7/24/2015,11:22:00,0.852,1
766,2,2,3,88,cat_control,cat_foil,cat_control,implicature,unambiguous,distractor,target,R,cat_control,Y,7/24/2015,11:22:00,1.747,1
767,2,2,3,89,cookie_control,cookie_foil,cookie_control,implicature,unambiguous,distractor,target,R,cookie_control,Y,7/24/2015,11:22:00,0.809,1
768,2,2,3,90,dog_control,dog_control,dog_foil,implicature,unambiguous,target,distractor,L,dog_control,Y,7/24/2015,11:22:00,1.244,1
769,2,2,3,91,flower_implic,flower_control,flower_implic,implicature,implicature,distractor,target,R,flower_implic,Y,7/24/2015,11:22:00,1.035,1
770,2,2,3,92,bird_implic,bird_control,bird_implic,implicature,implicature,distractor,target,R,bird_implic,Y,7/24/2015,11:22:00,1.402,1
771,2,2,3,93,teddybear_control,teddybear_foil,teddybear_control,implicature,unambiguous,distractor,target,R,teddybear_control,Y,7/24/2015,11:22:00,1.057,1
772,2,2,3,94,bicycle_control,bicycle_control,bicycle_foil,implicature,unambiguous,target,distractor,L,bicycle_control,Y,7/24/2015,11:22:00,0.887,1
773,2,2,3,95,lamp_implic,lamp_implic,lamp_control,implicature,implicature,target,distractor,L,lamp_implic,Y,7/24/2015,11:22:00,1.142,1
774,2,2,3,96,cup_control,cup_control,cup_foil,implicature,unambiguous,target,distractor,L,cup_control,Y,7/24/2015,11:22:00,2.621,1
775,2,2,3,97,teddybear_control,teddybear_control,teddybear_foil,implicature,unambiguous,target,distractor,L,teddybear_control,Y,7/24/2015,11:22:00,1.319,1
776,2,2,3,98,cup_control,cup_control,cup_foil,implicature,unambiguous,target,distractor,L,cup_control,Y,7/24/2015,11:22:00,0.874,1
777,2,2,3,99,bird_implic,bird_implic,bird_control,implicature,implicature,target,distractor,L,bird_implic,Y,7/24/2015,11:22:00,1.517,1
778,2,2,3,100,dog_control,dog_foil,dog_control,implicature,unambiguous,distractor,target,R,dog_control,Y,7/24/2015,11:22:00,0.769,1
779,2,2,3,101,bicycle_control,bicycle_control,bicycle_foil,implicature,unambiguous,target,distractor,L,bicycle_control,Y,7/24/2015,11:22:00,1.707,1
780,2,2,3,102,cat_implic,cat_implic,cat_control,implicature,implicature,target,distractor,L,cat_implic,Y,7/24/2015,11:22:00,1.282,1
781,2,2,3,103,car_control,car_foil,car_control,implicature,unambiguous,distractor,target,R,car_control,Y,7/24/2015,11:22:00,0.974,1
782,2,2,3,104,cookie_control,cookie_foil,cookie_control,implicature,unambiguous,distractor,target,R,cookie_control,Y,7/24/2015,11:22:00,1.069,1
783,2,2,3,105,banana_implic,banana_control,banana_implic,implicature,implicature,distractor,target,R,banana_implic,Y,7/24/2015,11:22:00,1.095,1
784,2,2,3,106,lamp_control,lamp_control,lamp_foil,implicature,unambiguous,target,distractor,L,lamp_control,Y,7/24/2015,11:22:00,1.05,1
