"","subid","list","trial.num","word","leftpic","rightpic","game","trial.type","leftpic.type","rightpic.type","side.chosen","pic.chosen","response","rt","agegroup"
"1","111015_1",1,30,"banana_pos","banana_pos","banana_inhib","inhibition","control","target","distractor","L","banana_pos","Y",1929,4
"2","111015_1",1,18,"dog_pos","dog_pos","dog_inhib","inhibition","control","target","distractor","L","dog_pos","Y",1864,4
"3","111015_1",1,19,"dog_pos","dog_inhib","dog_pos","inhibition","control","distractor","target","R","dog_pos","Y",1438,4
"4","111015_1",1,53,"flower_inhib","flower_pos","flower_inhib","inhibition","inhib","distractor","target","R","flower_inhib","Y",1623,4
"5","111015_1",1,21,"teddybear_pos","teddybear_inhib","teddybear_pos","inhibition","control","distractor","target","R","teddybear_pos","Y",1684,4
"6","111015_1",1,13,"car_inhib","car_inhib","car_pos","inhibition","inhib","target","distractor","L","car_inhib","Y",4714,4
"7","111015_1",1,14,"dog_pos","dog_inhib","dog_pos","inhibition","control","distractor","target","L","dog_inhib","N",291,4
"8","111015_1",1,15,"dog_pos","dog_pos","dog_inhib","inhibition","control","target","distractor","L","dog_pos","Y",3047,4
"9","111015_1",1,12,"car_pos","car_pos","car_inhib","inhibition","control","target","distractor","R","car_inhib","N",1575,4
"10","111015_1",1,17,"dog_pos","dog_inhib","dog_pos","inhibition","control","distractor","target","R","dog_pos","Y",1282,4
"11","111015_1",1,5,"apple_pos","apple_pos","apple_inhib","inhibition","control","target","distractor","R","apple_inhib","N",1875,4
"12","111015_1",1,55,"cookie_pos","cookie_pos","cookie_inhib","inhibition","control","target","distractor","L","cookie_pos","Y",1389,4
"13","111015_1",1,16,"dog_pos","dog_inhib","dog_pos","inhibition","control","distractor","target","L","dog_inhib","N",2217,4
"14","111015_1",1,46,"cat_pos","cat_inhib","cat_pos","inhibition","control","distractor","target","R","cat_pos","Y",1312,4
"15","111015_1",1,22,"teddybear_pos","teddybear_pos","teddybear_inhib","inhibition","control","target","distractor","L","teddybear_pos","Y",1441,4
"16","111015_1",1,10,"car_pos","car_inhib","car_pos","inhibition","control","distractor","target","L","car_inhib","N",297,4
"17","111015_1",1,52,"flower_pos","flower_inhib","flower_pos","inhibition","control","distractor","target","R","flower_pos","Y",1975,4
"18","111015_1",1,26,"teddybear_pos","teddybear_inhib","teddybear_pos","inhibition","control","distractor","target","R","teddybear_pos","Y",1425,4
"19","111015_1",1,27,"teddybear_inhib","teddybear_inhib","teddybear_pos","inhibition","inhib","target","distractor","L","teddybear_inhib","Y",1166,4
"20","111015_1",1,28,"banana_pos","banana_pos","banana_inhib","inhibition","control","target","distractor","R","banana_inhib","N",1380,4
"21","111015_1",1,29,"banana_pos","banana_pos","banana_inhib","inhibition","control","target","distractor","L","banana_pos","Y",1161,4
"22","111015_1",1,7,"bicycle_pos","bicycle_pos","bicycle_neg","negation","positive","target","distractor","L","bicycle_pos","Y",1322,4
"23","111015_1",1,2,"apple_pos","apple_pos","apple_inhib","inhibition","control","target","distractor","L","apple_pos","Y",246,4
"24","111015_1",1,54,"cookie_pos","cookie_pos","cookie_inhib","inhibition","control","target","distractor","L","cookie_pos","Y",1644,4
"25","111015_1",1,9,"apple_pos","apple_neg","apple_pos","negation","positive","distractor","target","L","apple_neg","N",913,4
"26","111015_1",1,56,"cookie_pos","cookie_inhib","cookie_pos","inhibition","control","distractor","target","R","cookie_pos","Y",2160,4
"27","111015_1",1,20,"dog_inhib","dog_inhib","dog_pos","inhibition","inhib","target","distractor","L","dog_inhib","Y",2662,4
"28","111015_1",1,47,"cat_inhib","cat_inhib","cat_pos","inhibition","inhib","target","distractor","L","cat_inhib","Y",1861,4
"29","111015_1",1,48,"flower_pos","flower_inhib","flower_pos","inhibition","control","distractor","target","R","flower_pos","Y",1655,4
"30","111015_1",1,9,"car_pos","car_pos","car_inhib","inhibition","control","target","distractor","L","car_pos","Y",2003,4
"31","111015_1",1,50,"flower_pos","flower_pos","flower_inhib","inhibition","control","target","distractor","L","flower_pos","Y",1638,4
"32","111015_1",1,51,"flower_pos","flower_pos","flower_inhib","inhibition","control","target","distractor","L","flower_pos","Y",1942,4
"33","111015_1",1,28,"bird_neg","bird_pos","bird_neg","negation","negative","distractor","target","L","bird_pos","N",773,4
"34","111015_1",1,29,"teddybear_pos","teddybear_neg","teddybear_pos","negation","positive","distractor","target","R","teddybear_pos","Y",992,4
"35","111015_1",1,30,"cookie_neg","cookie_neg","cookie_pos","negation","negative","target","distractor","L","cookie_neg","Y",1270,4
"36","111015_1",1,31,"apple_neg","apple_pos","apple_neg","negation","negative","distractor","target","R","apple_neg","Y",791.999999999998,4
"37","111015_1",1,8,"lamp_neg","lamp_neg","lamp_pos","negation","negative","target","distractor","R","lamp_pos","N",818.999999999997,4
"38","111015_1",1,43,"cat_pos","cat_inhib","cat_pos","inhibition","control","distractor","target","L","cat_inhib","N",1802,4
"39","111015_1",1,6,"apple_inhib","apple_pos","apple_inhib","inhibition","inhib","distractor","target","L","apple_pos","N",3373,4
"40","111015_1",1,7,"car_pos","car_pos","car_inhib","inhibition","control","target","distractor","R","car_inhib","N",1868,4
"41","111015_1",1,58,"cookie_pos","cookie_pos","cookie_inhib","inhibition","control","target","distractor","L","cookie_pos","Y",1904,4
"42","111015_1",1,59,"cookie_inhib","cookie_pos","cookie_inhib","inhibition","inhib","distractor","target","R","cookie_inhib","Y",1622,4
"43","111015_1",1,49,"flower_pos","flower_pos","flower_inhib","inhibition","control","target","distractor","L","flower_pos","Y",1524,4
"44","111015_1",1,24,"teddybear_pos","teddybear_inhib","teddybear_pos","inhibition","control","distractor","target","R","teddybear_pos","Y",1684,4
"45","111015_1",1,25,"teddybear_pos","teddybear_pos","teddybear_inhib","inhibition","control","target","distractor","L","teddybear_pos","Y",1432,4
"46","111015_1",1,4,"cookie_pos","cookie_neg","cookie_pos","negation","positive","distractor","target","L","cookie_neg","N",1706,4
"47","111015_1",1,5,"car_neg","car_neg","car_pos","negation","negative","target","distractor","L","car_neg","Y",3115,4
"48","111015_1",1,6,"cup_neg","cup_neg","cup_pos","negation","negative","target","distractor","R","cup_pos","N",1579,4
"49","111015_1",1,66,"bird_pos","bird_inhib","bird_pos","inhibition","control","distractor","target","R","bird_pos","Y",1790,4
"50","111015_1",1,42,"cat_pos","cat_inhib","cat_pos","inhibition","control","distractor","target","R","cat_pos","Y",2431,4
"51","111015_1",1,54,"dog_control","dog_foil","dog_control","implicature","unambiguous","distractor","target","L","dog_foil","N",1105,4
"52","111015_1",1,55,"apple_implic","apple_implic","apple_control","implicature","implicature","target","distractor","R","apple_control","N",637,4
"53","111015_1",1,56,"bird_control","bird_control","bird_foil","implicature","unambiguous","target","distractor","L","bird_control","Y",395,4
"54","111015_1",1,44,"bicycle_control","bicycle_control","bicycle_foil","implicature","unambiguous","target","distractor","L","bicycle_control","Y",1046,4
"55","111015_1",1,45,"teddybear_control","teddybear_foil","teddybear_control","implicature","unambiguous","distractor","target","L","teddybear_foil","N",296,4
"56","111015_1",1,23,"teddybear_pos","teddybear_pos","teddybear_inhib","inhibition","control","target","distractor","L","teddybear_pos","Y",1619,4
"57","111015_1",1,11,"car_pos","car_inhib","car_pos","inhibition","control","distractor","target","L","car_inhib","N",45,4
"58","111015_1",1,48,"apple_control","apple_control","apple_foil","implicature","unambiguous","target","distractor","L","apple_control","Y",47,4
"59","111015_1",1,49,"lamp_implic","lamp_control","lamp_implic","implicature","implicature","distractor","target","R","lamp_implic","Y",1024,4
"60","111015_1",1,50,"car_control","car_control","car_foil","implicature","unambiguous","target","distractor","L","car_control","Y",793,4
"61","111015_1",1,51,"flower_control","flower_foil","flower_control","implicature","unambiguous","distractor","target","R","flower_control","Y",1058,4
"62","111015_1",1,52,"banana_implic","banana_implic","banana_control","implicature","implicature","target","distractor","L","banana_implic","Y",1525,4
"63","111015_1",1,53,"cookie_implic","cookie_implic","cookie_control","implicature","implicature","target","distractor","R","cookie_control","N",802,4
"64","111015_1",1,46,"banana_neg","banana_pos","banana_neg","negation","negative","distractor","target","L","banana_pos","N",741.000000000001,4
"65","111015_1",1,67,"bird_pos","bird_inhib","bird_pos","inhibition","control","distractor","target","R","bird_pos","Y",1498,4
"66","111015_1",1,68,"bird_pos","bird_inhib","bird_pos","inhibition","control","distractor","target","R","bird_pos","Y",774,4
"67","111015_1",1,57,"cookie_pos","cookie_pos","cookie_inhib","inhibition","control","target","distractor","L","cookie_pos","Y",1652,4
"68","111015_1",1,58,"cup_implic","cup_implic","cup_control","implicature","implicature","target","distractor","L","cup_implic","Y",1347,4
"69","111015_1",1,8,"car_pos","car_pos","car_inhib","inhibition","control","target","distractor","R","car_inhib","N",1743,4
"70","111015_1",1,60,"cat_implic","cat_control","cat_implic","implicature","implicature","distractor","target","L","cat_control","N",1361,4
"71","111015_1",1,1,"dog_pos","dog_neg","dog_pos","negation","positive","distractor","target","R","dog_pos","Y",1796,4
"72","111015_1",1,2,"cat_neg","cat_pos","cat_neg","negation","negative","distractor","target","L","cat_pos","N",1506,4
"73","111015_1",1,3,"teddybear_neg","teddybear_pos","teddybear_neg","negation","negative","distractor","target","R","teddybear_neg","Y",1992,4
"74","111015_1",1,63,"lamp_pos","lamp_inhib","lamp_pos","inhibition","control","distractor","target","L","lamp_inhib","N",1003,4
"75","111015_1",1,64,"lamp_pos","lamp_pos","lamp_inhib","inhibition","control","target","distractor","L","lamp_pos","Y",1296,4
"76","111015_1",1,65,"lamp_inhib","lamp_pos","lamp_inhib","inhibition","inhib","distractor","target","R","lamp_inhib","Y",1232,4
"77","111015_1",1,3,"apple_pos","apple_pos","apple_inhib","inhibition","control","target","distractor","L","apple_pos","Y",42,4
"78","111015_1",1,42,"cat_control","cat_control","cat_foil","implicature","unambiguous","target","distractor","L","cat_control","Y",122,4
"79","111015_1",1,41,"car_control","car_foil","car_control","implicature","unambiguous","distractor","target","L","car_foil","N",167,4
"80","111015_1",1,43,"flower_implic","flower_implic","flower_control","implicature","implicature","target","distractor","L","flower_implic","Y",129,4
"81","111015_1",1,45,"cat_pos","cat_inhib","cat_pos","inhibition","control","distractor","target","L","cat_inhib","N",1387,4
"82","111015_1",1,59,"bicycle_control","bicycle_control","bicycle_foil","implicature","unambiguous","target","distractor","R","bicycle_foil","N",931,4
"83","111015_1",1,35,"bicycle_pos","bicycle_pos","bicycle_inhib","inhibition","control","target","distractor","L","bicycle_pos","Y",2183,4
"84","111015_1",1,24,"car_pos","car_neg","car_pos","negation","positive","distractor","target","L","car_neg","N",957,4
"85","111015_1",1,25,"car_neg","car_neg","car_pos","negation","negative","target","distractor","R","car_pos","N",982,4
"86","111015_1",1,26,"banana_pos","banana_neg","banana_pos","negation","positive","distractor","target","L","banana_neg","N",2413,4
"87","111015_1",1,27,"cat_pos","cat_pos","cat_neg","negation","positive","target","distractor","R","cat_neg","N",1037,4
"88","111015_1",1,8,"bicycle_implic","bicycle_implic","bicycle_control","implicature","implicature","target","distractor","L","bicycle_implic","Y",1328,4
"89","111015_1",1,9,"lamp_control","lamp_foil","lamp_control","implicature","unambiguous","distractor","target","R","lamp_control","Y",1278,4
"90","111015_1",1,10,"car_implic","car_implic","car_control","implicature","implicature","target","distractor","L","car_implic","Y",1184,4
"91","111015_1",1,11,"flower_control","flower_control","flower_foil","implicature","unambiguous","target","distractor","L","flower_control","Y",2470,4
"92","111015_1",1,32,"cup_neg","cup_pos","cup_neg","negation","negative","distractor","target","L","cup_pos","N",791.000000000001,4
"93","111015_1",1,33,"dog_neg","dog_neg","dog_pos","negation","negative","target","distractor","R","dog_pos","N",1014,4
"94","111015_1",1,57,"teddybear_implic","teddybear_implic","teddybear_control","implicature","implicature","target","distractor","R","teddybear_control","N",751,4
"95","111015_1",1,22,"dog_neg","dog_neg","dog_pos","negation","negative","target","distractor","L","dog_neg","Y",2252,4
"96","111015_1",1,23,"banana_pos","banana_neg","banana_pos","negation","positive","distractor","target","R","banana_pos","Y",956,4
"97","111015_1",1,37,"teddybear_pos","teddybear_neg","teddybear_pos","negation","positive","distractor","target","R","teddybear_pos","Y",1572,4
"98","111015_1",1,60,"lamp_pos","lamp_pos","lamp_inhib","inhibition","control","target","distractor","L","lamp_pos","Y",1609,4
"99","111015_1",1,61,"lamp_pos","lamp_pos","lamp_inhib","inhibition","control","target","distractor","L","lamp_pos","Y",1403,4
"100","111015_1",1,62,"lamp_pos","lamp_pos","lamp_inhib","inhibition","control","target","distractor","L","lamp_pos","Y",1165,4
"101","111015_1",1,21,"banana_implic","banana_control","banana_implic","implicature","implicature","distractor","target","L","banana_control","N",1765,4
"102","111015_1",1,22,"car_control","car_control","car_foil","implicature","unambiguous","target","distractor","R","car_foil","N",802,4
"103","111015_1",1,24,"teddybear_control","teddybear_control","teddybear_foil","implicature","unambiguous","target","distractor","L","teddybear_control","Y",3027,4
"104","111015_1",1,25,"bird_control","bird_foil","bird_control","implicature","unambiguous","distractor","target","R","bird_control","Y",2003,4
"105","111015_1",1,26,"banana_control","banana_foil","banana_control","implicature","unambiguous","distractor","target","L","banana_foil","N",1627,4
"106","111015_1",1,27,"apple_implic","apple_control","apple_implic","implicature","implicature","distractor","target","R","apple_implic","Y",3572,4
"107","111015_1",1,31,"banana_pos","banana_inhib","banana_pos","inhibition","control","distractor","target","R","banana_pos","Y",1600,4
"108","111015_1",1,35,"flower_pos","flower_neg","flower_pos","negation","positive","distractor","target","R","flower_pos","Y",1106,4
"109","111015_1",1,36,"lamp_neg","lamp_neg","lamp_pos","negation","negative","target","distractor","L","lamp_neg","Y",1564,4
"110","111015_1",1,34,"banana_inhib","banana_inhib","banana_pos","inhibition","inhib","target","distractor","L","banana_inhib","Y",1721,4
"111","111015_1",1,12,"banana_pos","banana_neg","banana_pos","negation","positive","distractor","target","R","banana_pos","Y",1228,4
"112","111015_1",1,37,"bicycle_pos","bicycle_inhib","bicycle_pos","inhibition","control","distractor","target","R","bicycle_pos","Y",1251,4
"113","111015_1",1,38,"bicycle_pos","bicycle_inhib","bicycle_pos","inhibition","control","distractor","target","R","bicycle_pos","Y",4216,4
"114","111015_1",1,39,"bicycle_pos","bicycle_inhib","bicycle_pos","inhibition","control","distractor","target","R","bicycle_pos","Y",268,4
"115","111015_1",1,40,"bicycle_pos","bicycle_inhib","bicycle_pos","inhibition","control","distractor","target","R","bicycle_pos","Y",2228,4
"116","111015_1",1,4,"apple_pos","apple_pos","apple_inhib","inhibition","control","target","distractor","L","apple_pos","Y",49,4
"117","111015_1",1,17,"lamp_pos","lamp_neg","lamp_pos","negation","positive","distractor","target","R","lamp_pos","Y",1088,4
"118","111015_1",1,18,"apple_pos","apple_pos","apple_neg","negation","positive","target","distractor","L","apple_pos","Y",1069,4
"119","111015_1",1,19,"bird_pos","bird_neg","bird_pos","negation","positive","distractor","target","R","bird_pos","Y",692,4
"120","111015_1",1,44,"cat_pos","cat_pos","cat_inhib","inhibition","control","target","distractor","R","cat_inhib","N",1522,4
"121","111015_1",1,1,"banana_control","banana_control","banana_foil","implicature","unambiguous","target","distractor","L","banana_control","Y",3420,4
"122","111015_1",1,2,"cup_control","cup_control","cup_foil","implicature","unambiguous","target","distractor","L","cup_control","Y",2555,4
"123","111015_1",1,3,"apple_implic","apple_control","apple_implic","implicature","implicature","distractor","target","R","apple_implic","Y",1888,4
"124","111015_1",1,4,"cat_control","cat_control","cat_foil","implicature","unambiguous","target","distractor","L","cat_control","Y",1573,4
"125","111015_1",1,5,"cookie_control","cookie_foil","cookie_control","implicature","unambiguous","distractor","target","R","cookie_control","Y",1299,4
"126","111015_1",1,6,"teddybear_implic","teddybear_implic","teddybear_control","implicature","implicature","target","distractor","L","teddybear_implic","Y",1549,4
"127","111015_1",1,7,"dog_control","dog_foil","dog_control","implicature","unambiguous","distractor","target","R","dog_control","Y",1440,4
"128","111015_1",1,40,"car_neg","car_pos","car_neg","negation","negative","distractor","target","L","car_pos","N",849,4
"129","111015_1",1,41,"lamp_neg","lamp_neg","lamp_pos","negation","negative","target","distractor","R","lamp_pos","N",742.999999999997,4
"130","111015_1",1,42,"cup_pos","cup_pos","cup_neg","negation","positive","target","distractor","L","cup_pos","Y",1427,4
"131","111015_1",1,43,"bicycle_neg","bicycle_neg","bicycle_pos","negation","negative","target","distractor","R","bicycle_pos","N",1174,4
"132","111015_1",1,12,"bird_implic","bird_implic","bird_control","implicature","implicature","target","distractor","R","bird_control","N",1525,4
"133","111015_1",1,13,"bicycle_control","bicycle_control","bicycle_foil","implicature","unambiguous","target","distractor","L","bicycle_control","Y",1456,4
"134","111015_1",1,34,"bicycle_neg","bicycle_pos","bicycle_neg","negation","negative","distractor","target","L","bicycle_pos","N",633.000000000001,4
"135","111015_1",1,15,"flower_implic","flower_implic","flower_control","implicature","implicature","target","distractor","L","flower_implic","Y",1060,4
"136","111015_1",1,16,"bird_control","bird_control","bird_foil","implicature","unambiguous","target","distractor","L","bird_control","Y",1419,4
"137","111015_1",1,17,"cat_implic","cat_implic","cat_control","implicature","implicature","target","distractor","L","cat_implic","Y",1688,4
"138","111015_1",1,18,"cookie_implic","cookie_implic","cookie_control","implicature","implicature","target","distractor","R","cookie_control","N",909,4
"139","111015_1",1,19,"apple_control","apple_foil","apple_control","implicature","unambiguous","distractor","target","L","apple_foil","N",1215,4
"140","111015_1",1,20,"lamp_implic","lamp_implic","lamp_control","implicature","implicature","target","distractor","R","lamp_control","N",1282,4
"141","111015_1",1,14,"bicycle_neg","bicycle_neg","bicycle_pos","negation","negative","target","distractor","L","bicycle_neg","Y",851.000000000001,4
"142","111015_1",1,15,"cookie_pos","cookie_neg","cookie_pos","negation","positive","distractor","target","R","cookie_pos","Y",1628,4
"143","111015_1",1,41,"bicycle_inhib","bicycle_pos","bicycle_inhib","inhibition","inhib","distractor","target","R","bicycle_inhib","Y",291,4
"144","111015_1",1,1,"apple_pos","apple_pos","apple_inhib","inhibition","control","target","distractor","L","apple_pos","Y",1507,4
"145","111015_1",1,44,"bird_neg","bird_neg","bird_pos","negation","negative","target","distractor","L","bird_neg","Y",767,4
"146","111015_1",1,45,"dog_neg","dog_neg","dog_pos","negation","negative","target","distractor","R","dog_pos","N",1209,4
"147","111015_1",1,28,"cat_implic","cat_control","cat_implic","implicature","implicature","distractor","target","R","cat_implic","Y",2246,4
"148","111015_1",1,32,"banana_pos","banana_inhib","banana_pos","inhibition","control","distractor","target","R","banana_pos","Y",1593,4
"149","111015_1",1,33,"banana_pos","banana_inhib","banana_pos","inhibition","control","distractor","target","R","banana_pos","Y",969,4
"150","111015_1",1,31,"bicycle_implic","bicycle_control","bicycle_implic","implicature","implicature","distractor","target","R","bicycle_implic","Y",2123,4
"151","111015_1",1,32,"cup_control","cup_control","cup_foil","implicature","unambiguous","target","distractor","L","cup_control","Y",1783,4
"152","111015_1",1,36,"bicycle_pos","bicycle_inhib","bicycle_pos","inhibition","control","distractor","target","R","bicycle_pos","Y",2655,4
"153","111015_1",1,13,"flower_pos","flower_pos","flower_neg","negation","positive","target","distractor","R","flower_neg","N",275,4
"154","111015_1",1,39,"cat_neg","cat_pos","cat_neg","negation","negative","distractor","target","R","cat_neg","Y",936.000000000001,4
"155","111015_1",1,35,"lamp_implic","lamp_control","lamp_implic","implicature","implicature","distractor","target","L","lamp_control","N",1385,4
"156","111015_1",1,36,"dog_control","dog_foil","dog_control","implicature","unambiguous","distractor","target","R","dog_control","Y",1185,4
"157","111015_1",1,16,"cat_pos","cat_pos","cat_neg","negation","positive","target","distractor","L","cat_pos","Y",1593,4
"158","111015_1",1,40,"lamp_implic","lamp_control","lamp_implic","implicature","implicature","distractor","target","L","lamp_control","N",137,4
"159","111015_1",1,77,"cup_pos","cup_inhib","cup_pos","inhibition","control","distractor","target","L","cup_inhib","N",1129,4
"160","111015_1",1,78,"cup_pos","cup_inhib","cup_pos","inhibition","control","distractor","target","R","cup_pos","Y",1447,4
"161","111015_1",1,20,"cup_neg","cup_neg","cup_pos","negation","negative","target","distractor","L","cup_neg","Y",799.000000000001,4
"162","111015_1",1,21,"teddybear_neg","teddybear_neg","teddybear_pos","negation","negative","target","distractor","L","teddybear_neg","Y",1910,4
"163","111015_1",1,49,"cup_pos","cup_pos","cup_neg","negation","positive","target","distractor","L","cup_pos","Y",293,4
"164","111015_1",1,46,"cup_implic","cup_implic","cup_control","implicature","implicature","target","distractor","L","cup_implic","Y",46,4
"165","111015_1",1,47,"dog_implic","dog_control","dog_implic","implicature","implicature","distractor","target","L","dog_control","N",45,4
"166","111015_1",1,38,"flower_neg","flower_pos","flower_neg","negation","negative","distractor","target","L","flower_pos","N",848,4
"167","111015_1",1,34,"cookie_implic","cookie_implic","cookie_control","implicature","implicature","target","distractor","R","cookie_control","N",1220,4
"168","111015_1",1,70,"bird_pos","bird_inhib","bird_pos","inhibition","control","distractor","target","R","bird_pos","Y",1394,4
"169","111015_1",1,71,"bird_pos","bird_inhib","bird_pos","inhibition","control","distractor","target","L","bird_inhib","N",3482,4
"170","111015_1",1,72,"bird_inhib","bird_inhib","bird_pos","inhibition","inhib","target","distractor","L","bird_inhib","Y",1848,4
"171","111015_1",1,23,"cup_control","cup_foil","cup_control","implicature","unambiguous","distractor","target","L","cup_foil","N",4029,4
"172","111015_1",1,60,"cookie_neg","cookie_pos","cookie_neg","negation","negative","distractor","target","R","cookie_neg","Y",1758,4
"173","111015_1",1,39,"banana_implic","banana_control","banana_implic","implicature","implicature","distractor","target","R","banana_implic","Y",518,4
"174","111015_1",1,47,"cookie_pos","cookie_pos","cookie_neg","negation","positive","target","distractor","R","cookie_neg","N",2418,4
"175","111015_1",1,14,"dog_implic","dog_implic","dog_control","implicature","implicature","target","distractor","L","dog_implic","Y",1602,4
"176","111015_1",1,51,"car_pos","car_pos","car_neg","negation","positive","target","distractor","L","car_pos","Y",45,4
"177","111015_1",1,10,"bird_neg","bird_pos","bird_neg","negation","negative","distractor","target","R","bird_neg","Y",696,4
"178","111015_1",1,11,"flower_pos","flower_neg","flower_pos","negation","positive","distractor","target","L","flower_neg","N",962,4
"179","111015_1",1,33,"car_control","car_control","car_foil","implicature","unambiguous","target","distractor","L","car_control","Y",1511,4
"180","111015_1",1,59,"flower_pos","flower_neg","flower_pos","negation","positive","distractor","target","R","flower_pos","Y",1238,4
"181","111015_1",1,37,"cookie_implic","cookie_implic","cookie_control","implicature","implicature","target","distractor","L","cookie_implic","Y",944,4
"182","111015_1",1,38,"bird_implic","bird_implic","bird_control","implicature","implicature","target","distractor","R","bird_control","N",753,4
"183","111015_1",1,52,"apple_neg","apple_neg","apple_pos","negation","negative","target","distractor","R","apple_pos","N",1626,4
"184","111015_1",1,48,"apple_pos","apple_pos","apple_neg","negation","positive","target","distractor","L","apple_pos","Y",1490,4
"185","111015_1",1,73,"cup_pos","cup_inhib","cup_pos","inhibition","control","distractor","target","R","cup_pos","Y",1322,4
"186","111015_1",1,29,"flower_control","flower_foil","flower_control","implicature","unambiguous","distractor","target","R","flower_control","Y",3588,4
"187","111015_1",1,58,"cat_pos","cat_pos","cat_neg","negation","positive","target","distractor","L","cat_pos","Y",2307,4
"188","111015_1",1,69,"bird_pos","bird_inhib","bird_pos","inhibition","control","distractor","target","R","bird_pos","Y",735,4
"189","111015_1",1,79,"cup_inhib","cup_inhib","cup_pos","inhibition","inhib","target","distractor","L","cup_inhib","Y",1739,4
"190","111015_1",1,54,"banana_neg","banana_neg","banana_pos","negation","negative","target","distractor","R","banana_pos","N",702.000000000001,4
"191","111015_1",1,50,"teddybear_pos","teddybear_pos","teddybear_neg","negation","positive","target","distractor","L","teddybear_pos","Y",44,4
"192","111015_1",1,76,"cup_pos","cup_pos","cup_inhib","inhibition","control","target","distractor","L","cup_pos","Y",2230,4
"193","111015_1",1,30,"teddybear_control","teddybear_foil","teddybear_control","implicature","unambiguous","distractor","target","R","teddybear_control","Y",2812,4
"194","111015_1",1,53,"dog_pos","dog_neg","dog_pos","negation","positive","distractor","target","L","dog_neg","N",1355,4
"195","111015_1",1,74,"cup_pos","cup_inhib","cup_pos","inhibition","control","distractor","target","R","cup_pos","Y",2003,4
"196","111015_1",1,75,"cup_pos","cup_pos","cup_inhib","inhibition","control","target","distractor","L","cup_pos","Y",1405,4
"197","111015_1",1,57,"bicycle_neg","bicycle_pos","bicycle_neg","negation","negative","distractor","target","R","bicycle_neg","Y",1614,4
"198","111015_1",1,56,"lamp_pos","lamp_pos","lamp_neg","negation","positive","target","distractor","L","lamp_pos","Y",295,4
"199","111015_1",1,55,"bird_pos","bird_pos","bird_neg","negation","positive","target","distractor","L","bird_pos","Y",899,4
"200","111015_3",1,3,"apple_control","apple_control","apple_foil","implicature","unambiguous","target","distractor","L","apple_control","Y",9358,3
"201","111015_3",1,37,"bicycle_pos","bicycle_pos","bicycle_inhib","inhibition","control","target","distractor","L","bicycle_pos","Y",7991,3
"202","111015_3",1,1,"banana_implic","banana_implic","banana_control","implicature","implicature","target","distractor","L","banana_implic","Y",3243,3
"203","111015_3",1,5,"apple_pos","apple_inhib","apple_pos","inhibition","control","distractor","target","R","apple_pos","Y",4908,3
"204","111015_3",1,36,"bicycle_pos","bicycle_inhib","bicycle_pos","inhibition","control","distractor","target","R","bicycle_pos","Y",4208,3
"205","111015_3",1,38,"bicycle_inhib","bicycle_pos","bicycle_inhib","inhibition","inhib","distractor","target","R","bicycle_inhib","Y",3593,3
"206","111015_3",1,8,"car_pos","car_pos","car_inhib","inhibition","control","target","distractor","L","car_pos","Y",2924,3
"207","111015_3",1,9,"car_pos","car_inhib","car_pos","inhibition","control","distractor","target","R","car_pos","Y",6691,3
"208","111015_3",1,2,"cup_control","cup_control","cup_foil","implicature","unambiguous","target","distractor","L","cup_control","Y",10757,3
"209","111015_3",1,6,"cup_neg","cup_neg","cup_pos","negation","negative","target","distractor","L","cup_neg","Y",11195,3
"210","111015_3",1,4,"cat_implic","cat_control","cat_implic","implicature","implicature","distractor","target","R","cat_implic","Y",4862,3
"211","111015_3",1,5,"cookie_implic","cookie_implic","cookie_control","implicature","implicature","target","distractor","L","cookie_implic","Y",3094,3
"212","111015_3",1,2,"cat_neg","cat_neg","cat_pos","negation","negative","target","distractor","L","cat_neg","Y",9054,3
"213","111015_3",1,35,"bicycle_pos","bicycle_inhib","bicycle_pos","inhibition","control","distractor","target","R","bicycle_pos","Y",2544,3
"214","111015_3",1,3,"apple_pos","apple_inhib","apple_pos","inhibition","control","distractor","target","R","apple_pos","Y",4755,3
"215","111015_3",1,4,"apple_pos","apple_pos","apple_inhib","inhibition","control","target","distractor","L","apple_pos","Y",2979,3
"216","111015_3",1,33,"bicycle_pos","bicycle_inhib","bicycle_pos","inhibition","control","distractor","target","R","bicycle_pos","Y",2642,3
"217","111015_3",1,34,"bicycle_pos","bicycle_pos","bicycle_inhib","inhibition","control","target","distractor","L","bicycle_pos","Y",12254,3
"218","111015_3",1,4,"cookie_neg","cookie_pos","cookie_neg","negation","negative","distractor","target","R","cookie_neg","Y",3137,3
"219","111015_3",1,5,"car_pos","car_pos","car_neg","negation","positive","target","distractor","L","car_pos","Y",8698,3
"220","111015_3",1,12,"car_inhib","car_inhib","car_pos","inhibition","inhib","target","distractor","L","car_inhib","Y",5875,3
"221","111015_3",1,10,"car_pos","car_inhib","car_pos","inhibition","control","distractor","target","R","car_pos","Y",2762,3
"222","111015_3",1,20,"teddybear_pos","teddybear_inhib","teddybear_pos","inhibition","control","distractor","target","R","teddybear_pos","Y",3658,3
"223","111015_3",1,11,"car_pos","car_pos","car_inhib","inhibition","control","target","distractor","L","car_pos","Y",3160,3
"224","111015_3",1,29,"banana_pos","banana_inhib","banana_pos","inhibition","control","distractor","target","R","banana_pos","Y",2360,3
"225","111015_3",1,1,"apple_pos","apple_inhib","apple_pos","inhibition","control","distractor","target","R","apple_pos","Y",5667,3
"226","111015_3",1,3,"teddybear_pos","teddybear_pos","teddybear_neg","negation","positive","target","distractor","L","teddybear_pos","Y",5097,3
"227","111015_3",1,14,"dog_pos","dog_pos","dog_inhib","inhibition","control","target","distractor","L","dog_pos","Y",5540,3
"228","111015_3",1,7,"car_pos","car_inhib","car_pos","inhibition","control","distractor","target","R","car_pos","Y",3063,3
"229","111015_3",1,32,"banana_inhib","banana_pos","banana_inhib","inhibition","inhib","distractor","target","R","banana_inhib","Y",2299,3
"230","111015_3",1,6,"teddybear_control","teddybear_foil","teddybear_control","implicature","unambiguous","distractor","target","R","teddybear_control","Y",4227,3
"231","111015_3",1,6,"apple_inhib","apple_pos","apple_inhib","inhibition","inhib","distractor","target","R","apple_inhib","Y",3841,3
"232","111015_3",1,21,"teddybear_pos","teddybear_inhib","teddybear_pos","inhibition","control","distractor","target","R","teddybear_pos","Y",3560,3
"233","111015_3",1,22,"teddybear_pos","teddybear_pos","teddybear_inhib","inhibition","control","target","distractor","L","teddybear_pos","Y",3677,3
"234","111015_3",1,1,"dog_pos","dog_pos","dog_neg","negation","positive","target","distractor","L","dog_pos","Y",6866,3
"235","111015_3",1,2,"apple_pos","apple_inhib","apple_pos","inhibition","control","distractor","target","R","apple_pos","Y",9512,3
"236","111015_3",1,26,"banana_pos","banana_pos","banana_inhib","inhibition","control","target","distractor","L","banana_pos","Y",9725,3
"237","111015_3",1,27,"banana_pos","banana_pos","banana_inhib","inhibition","control","target","distractor","L","banana_pos","Y",5024,3
"238","111015_3",1,19,"dog_inhib","dog_inhib","dog_pos","inhibition","inhib","target","distractor","L","dog_inhib","Y",2064,3
"239","111015_3",1,28,"banana_pos","banana_pos","banana_inhib","inhibition","control","target","distractor","L","banana_pos","Y",6260,3
"240","111015_3",1,30,"banana_pos","banana_inhib","banana_pos","inhibition","control","distractor","target","R","banana_pos","Y",7907,3
"241","111015_3",1,31,"banana_pos","banana_inhib","banana_pos","inhibition","control","distractor","target","R","banana_pos","Y",3011,3
"242","111015_3",1,24,"teddybear_pos","teddybear_inhib","teddybear_pos","inhibition","control","distractor","target","R","teddybear_pos","Y",2996,3
"243","111015_3",1,23,"teddybear_pos","teddybear_inhib","teddybear_pos","inhibition","control","distractor","target","R","teddybear_pos","Y",2095,3
"244","111015_3",1,13,"dog_pos","dog_pos","dog_inhib","inhibition","control","target","distractor","L","dog_pos","Y",3800,3
"245","111015_3",1,25,"teddybear_inhib","teddybear_inhib","teddybear_pos","inhibition","inhib","target","distractor","L","teddybear_inhib","Y",2126,3
"246","111015_3",1,18,"dog_pos","dog_pos","dog_inhib","inhibition","control","target","distractor","L","dog_pos","Y",1661,3
"247","111015_3",1,16,"dog_pos","dog_inhib","dog_pos","inhibition","control","distractor","target","R","dog_pos","Y",2178,3
"248","111015_3",1,17,"dog_pos","dog_inhib","dog_pos","inhibition","control","distractor","target","R","dog_pos","Y",3891,3
"249","111015_3",1,15,"dog_pos","dog_inhib","dog_pos","inhibition","control","distractor","target","R","dog_pos","Y",2780,3
"250","111015_4",2,47,"banana_pos","banana_pos","banana_inhib","inhibition","control","target","distractor","L","banana_pos","Y",1339,5
"251","111015_4",2,48,"banana_pos","banana_inhib","banana_pos","inhibition","control","distractor","target","R","banana_pos","Y",951,5
"252","111015_4",2,39,"cat_pos","cat_inhib","cat_pos","inhibition","control","distractor","target","R","cat_pos","Y",1274,5
"253","111015_4",2,47,"dog_implic","dog_control","dog_implic","implicature","implicature","distractor","target","R","dog_implic","Y",1224,5
"254","111015_4",2,46,"bicycle_inhib","bicycle_pos","bicycle_inhib","inhibition","inhib","distractor","target","R","bicycle_inhib","Y",1276,5
"255","111015_4",2,59,"cup_implic","cup_control","cup_implic","implicature","implicature","distractor","target","R","cup_implic","Y",1787,5
"256","111015_4",2,45,"bicycle_pos","bicycle_pos","bicycle_inhib","inhibition","control","target","distractor","L","bicycle_pos","Y",949,5
"257","111015_4",2,60,"banana_implic","banana_control","banana_implic","implicature","implicature","distractor","target","R","banana_implic","Y",1847,5
"258","111015_4",2,48,"bicycle_implic","bicycle_implic","bicycle_control","implicature","implicature","target","distractor","L","bicycle_implic","Y",950,5
"259","111015_4",2,49,"bird_implic","bird_implic","bird_control","implicature","implicature","target","distractor","L","bird_implic","Y",2018,5
"260","111015_4",2,3,"cat_neg","cat_neg","cat_pos","negation","negative","target","distractor","R","cat_pos","N",1552,5
"261","111015_4",2,50,"flower_control","flower_foil","flower_control","implicature","unambiguous","distractor","target","R","flower_control","Y",1876,5
"262","111015_4",2,1,"cookie_pos","cookie_neg","cookie_pos","negation","positive","distractor","target","R","cookie_pos","Y",1605,5
"263","111015_4",2,58,"apple_control","apple_foil","apple_control","implicature","unambiguous","distractor","target","R","apple_control","Y",1516,5
"264","111015_4",2,52,"banana_pos","banana_inhib","banana_pos","inhibition","control","distractor","target","R","banana_pos","Y",634,5
"265","111015_4",2,53,"bicycle_control","bicycle_control","bicycle_foil","implicature","unambiguous","target","distractor","L","bicycle_control","Y",2109,5
"266","111015_4",2,51,"car_control","car_control","car_foil","implicature","unambiguous","target","distractor","L","car_control","Y",1234,5
"267","111015_4",2,2,"flower_pos","flower_neg","flower_pos","negation","positive","distractor","target","R","flower_pos","Y",946,5
"268","111015_4",2,56,"cookie_implic","cookie_implic","cookie_control","implicature","implicature","target","distractor","L","cookie_implic","Y",914,5
"269","111015_4",2,57,"cat_implic","cat_implic","cat_control","implicature","implicature","target","distractor","L","cat_implic","Y",1420,5
"270","111015_4",2,44,"bicycle_pos","bicycle_pos","bicycle_inhib","inhibition","control","target","distractor","L","bicycle_pos","Y",1226,5
"271","111015_4",2,24,"teddybear_pos","teddybear_pos","teddybear_neg","negation","positive","target","distractor","L","teddybear_pos","Y",1723,5
"272","111015_4",2,25,"lamp_pos","lamp_pos","lamp_neg","negation","positive","target","distractor","L","lamp_pos","Y",2587,5
"273","111015_4",2,26,"flower_neg","flower_neg","flower_pos","negation","negative","target","distractor","L","flower_neg","Y",1391,5
"274","111015_4",2,49,"banana_pos","banana_inhib","banana_pos","inhibition","control","distractor","target","L","banana_inhib","N",874,5
"275","111015_4",2,50,"banana_pos","banana_pos","banana_inhib","inhibition","control","target","distractor","R","banana_inhib","N",356,5
"276","111015_4",2,52,"lamp_implic","lamp_implic","lamp_control","implicature","implicature","target","distractor","L","lamp_implic","Y",1978,5
"277","111015_4",2,22,"cookie_pos","cookie_inhib","cookie_pos","inhibition","control","distractor","target","R","cookie_pos","Y",1058,5
"278","111015_4",2,38,"cat_pos","cat_inhib","cat_pos","inhibition","control","distractor","target","R","cat_pos","Y",1034,5
"279","111015_4",2,54,"dog_control","dog_control","dog_foil","implicature","unambiguous","target","distractor","L","dog_control","Y",2586,5
"280","111015_4",2,55,"teddybear_implic","teddybear_implic","teddybear_control","implicature","implicature","target","distractor","L","teddybear_implic","Y",1273,5
"281","111015_4",2,41,"bicycle_pos","bicycle_inhib","bicycle_pos","inhibition","control","distractor","target","R","bicycle_pos","Y",907,5
"282","111015_4",2,42,"bicycle_pos","bicycle_inhib","bicycle_pos","inhibition","control","distractor","target","R","bicycle_pos","Y",562,5
"283","111015_4",2,15,"lamp_pos","lamp_pos","lamp_inhib","inhibition","control","target","distractor","L","lamp_pos","Y",1915,5
"284","111015_4",2,16,"lamp_pos","lamp_pos","lamp_inhib","inhibition","control","target","distractor","L","lamp_pos","Y",2704,5
"285","111015_4",2,17,"lamp_pos","lamp_pos","lamp_inhib","inhibition","control","target","distractor","L","lamp_pos","Y",1273,5
"286","111015_4",2,18,"lamp_pos","lamp_pos","lamp_inhib","inhibition","control","target","distractor","L","lamp_pos","Y",1082,5
"287","111015_4",2,19,"lamp_pos","lamp_pos","lamp_inhib","inhibition","control","target","distractor","L","lamp_pos","Y",704,5
"288","111015_4",2,20,"lamp_inhib","lamp_inhib","lamp_pos","inhibition","inhib","target","distractor","L","lamp_inhib","Y",1906,5
"289","111015_4",2,51,"banana_pos","banana_pos","banana_inhib","inhibition","control","target","distractor","L","banana_pos","Y",1171,5
"290","111015_4",2,4,"cup_pos","cup_pos","cup_inhib","inhibition","control","target","distractor","L","cup_pos","Y",713,5
"291","111015_4",2,5,"cup_pos","cup_inhib","cup_pos","inhibition","control","distractor","target","L","cup_inhib","N",1591,5
"292","111015_4",2,40,"banana_control","banana_control","banana_foil","implicature","unambiguous","target","distractor","L","banana_control","Y",1432,5
"293","111015_4",2,40,"cat_inhib","cat_pos","cat_inhib","inhibition","inhib","distractor","target","R","cat_inhib","Y",1465,5
"294","111015_4",2,8,"bird_pos","bird_pos","bird_inhib","inhibition","control","target","distractor","L","bird_pos","Y",1320,5
"295","111015_4",2,9,"bird_pos","bird_inhib","bird_pos","inhibition","control","distractor","target","R","bird_pos","Y",1511,5
"296","111015_4",2,43,"bicycle_pos","bicycle_inhib","bicycle_pos","inhibition","control","distractor","target","R","bicycle_pos","Y",932,5
"297","111015_4",2,44,"cat_control","cat_foil","cat_control","implicature","unambiguous","distractor","target","R","cat_control","Y",2473,5
"298","111015_4",2,45,"bird_control","bird_foil","bird_control","implicature","unambiguous","distractor","target","R","bird_control","Y",2269,5
"299","111015_4",2,46,"flower_implic","flower_control","flower_implic","implicature","implicature","distractor","target","R","flower_implic","Y",2577,5
"300","111015_4",2,1,"cup_pos","cup_pos","cup_inhib","inhibition","control","target","distractor","L","cup_pos","Y",1731,5
"301","111015_4",2,2,"cup_pos","cup_pos","cup_inhib","inhibition","control","target","distractor","L","cup_pos","Y",1290,5
"302","111015_4",2,21,"cookie_pos","cookie_inhib","cookie_pos","inhibition","control","distractor","target","R","cookie_pos","Y",1501,5
"303","111015_4",2,62,"dog_pos","dog_inhib","dog_pos","inhibition","control","distractor","target","R","dog_pos","Y",780,5
"304","111015_4",2,63,"dog_pos","dog_pos","dog_inhib","inhibition","control","target","distractor","L","dog_pos","Y",1081,5
"305","111015_4",2,53,"banana_inhib","banana_pos","banana_inhib","inhibition","inhib","distractor","target","R","banana_inhib","Y",1543,5
"306","111015_4",2,54,"teddybear_pos","teddybear_inhib","teddybear_pos","inhibition","control","distractor","target","R","teddybear_pos","Y",1109,5
"307","111015_4",2,26,"cookie_inhib","cookie_inhib","cookie_pos","inhibition","inhib","target","distractor","L","cookie_inhib","Y",1643,5
"308","111015_4",2,27,"flower_pos","flower_inhib","flower_pos","inhibition","control","distractor","target","R","flower_pos","Y",1256,5
"309","111015_4",2,10,"bird_pos","bird_pos","bird_inhib","inhibition","control","target","distractor","L","bird_pos","Y",1177,5
"310","111015_4",2,11,"bird_pos","bird_pos","bird_inhib","inhibition","control","target","distractor","L","bird_pos","Y",1103,5
"311","111015_4",2,12,"bird_pos","bird_inhib","bird_pos","inhibition","control","distractor","target","R","bird_pos","Y",1475,5
"312","111015_4",2,13,"bird_inhib","bird_inhib","bird_pos","inhibition","inhib","target","distractor","L","bird_inhib","Y",1412,5
"313","111015_4",2,14,"lamp_pos","lamp_inhib","lamp_pos","inhibition","control","distractor","target","R","lamp_pos","Y",1775,5
"314","111015_4",2,60,"dog_pos","dog_pos","dog_inhib","inhibition","control","target","distractor","L","dog_pos","Y",2399,5
"315","111015_4",2,3,"cup_pos","cup_pos","cup_inhib","inhibition","control","target","distractor","L","cup_pos","Y",992,5
"316","111015_4",2,37,"teddybear_control","teddybear_foil","teddybear_control","implicature","unambiguous","distractor","target","R","teddybear_control","Y",2633,5
"317","111015_4",2,38,"cup_implic","cup_implic","cup_control","implicature","implicature","target","distractor","L","cup_implic","Y",2337,5
"318","111015_4",2,39,"car_implic","car_control","car_implic","implicature","implicature","distractor","target","R","car_implic","Y",1875,5
"319","111015_4",2,37,"cat_pos","cat_pos","cat_inhib","inhibition","control","target","distractor","L","cat_pos","Y",1216,5
"320","111015_4",2,18,"bicycle_neg","bicycle_pos","bicycle_neg","negation","negative","distractor","target","R","bicycle_neg","Y",1901,5
"321","111015_4",2,19,"cup_pos","cup_neg","cup_pos","negation","positive","distractor","target","R","cup_pos","Y",1467,5
"322","111015_4",2,20,"lamp_neg","lamp_pos","lamp_neg","negation","negative","distractor","target","R","lamp_neg","Y",1265,5
"323","111015_4",2,21,"car_pos","car_neg","car_pos","negation","positive","distractor","target","R","car_pos","Y",1727,5
"324","111015_4",2,22,"cat_neg","cat_neg","cat_pos","negation","negative","target","distractor","L","cat_neg","Y",2306,5
"325","111015_4",2,23,"flower_neg","flower_neg","flower_pos","negation","negative","target","distractor","R","flower_pos","N",846,5
"326","111015_4",2,5,"bird_implic","bird_control","bird_implic","implicature","implicature","distractor","target","R","bird_implic","Y",1315,5
"327","111015_4",2,6,"apple_control","apple_control","apple_foil","implicature","unambiguous","target","distractor","L","apple_control","Y",1608,5
"328","111015_4",2,61,"dog_pos","dog_inhib","dog_pos","inhibition","control","distractor","target","R","dog_pos","Y",965,5
"329","111015_4",2,8,"cookie_control","cookie_control","cookie_foil","implicature","unambiguous","target","distractor","L","cookie_control","Y",1780,5
"330","111015_4",2,27,"bicycle_neg","bicycle_pos","bicycle_neg","negation","negative","distractor","target","R","bicycle_neg","Y",1285,5
"331","111015_4",2,28,"dog_neg","dog_neg","dog_pos","negation","negative","target","distractor","L","dog_neg","Y",1954,5
"332","111015_4",2,6,"cup_inhib","cup_pos","cup_inhib","inhibition","inhib","distractor","target","L","cup_pos","N",1193,5
"333","111015_4",2,7,"bird_pos","bird_pos","bird_inhib","inhibition","control","target","distractor","L","bird_pos","Y",1612,5
"334","111015_4",2,31,"cookie_pos","cookie_neg","cookie_pos","negation","positive","distractor","target","R","cookie_pos","Y",1009,5
"335","111015_4",2,32,"teddybear_pos","teddybear_neg","teddybear_pos","negation","positive","distractor","target","R","teddybear_pos","Y",1148,5
"336","111015_4",2,55,"teddybear_pos","teddybear_pos","teddybear_inhib","inhibition","control","target","distractor","L","teddybear_pos","Y",1314,5
"337","111015_4",2,56,"teddybear_pos","teddybear_pos","teddybear_inhib","inhibition","control","target","distractor","L","teddybear_pos","Y",1146,5
"338","111015_4",2,57,"teddybear_pos","teddybear_inhib","teddybear_pos","inhibition","control","distractor","target","R","teddybear_pos","Y",822,5
"339","111015_4",2,58,"teddybear_pos","teddybear_inhib","teddybear_pos","inhibition","control","distractor","target","R","teddybear_pos","Y",1073,5
"340","111015_4",2,59,"teddybear_inhib","teddybear_pos","teddybear_inhib","inhibition","inhib","distractor","target","L","teddybear_pos","N",699,5
"341","111015_4",2,7,"dog_implic","dog_implic","dog_control","implicature","implicature","target","distractor","L","dog_implic","Y",1647,5
"342","111015_4",2,21,"lamp_implic","lamp_implic","lamp_control","implicature","implicature","target","distractor","L","lamp_implic","Y",2044,5
"343","111015_4",2,22,"banana_control","banana_foil","banana_control","implicature","unambiguous","distractor","target","R","banana_control","Y",1793,5
"344","111015_4",2,23,"bird_control","bird_foil","bird_control","implicature","unambiguous","distractor","target","R","bird_control","Y",1426,5
"345","111015_4",2,64,"dog_pos","dog_pos","dog_inhib","inhibition","control","target","distractor","L","dog_pos","Y",876,5
"346","111015_4",2,23,"cookie_pos","cookie_pos","cookie_inhib","inhibition","control","target","distractor","R","cookie_inhib","N",818,5
"347","111015_4",2,24,"cookie_pos","cookie_pos","cookie_inhib","inhibition","control","target","distractor","L","cookie_pos","Y",1017,5
"348","111015_4",2,25,"cookie_pos","cookie_inhib","cookie_pos","inhibition","control","distractor","target","R","cookie_pos","Y",1466,5
"349","111015_4",2,29,"flower_pos","flower_inhib","flower_pos","inhibition","control","distractor","target","R","flower_pos","Y",746,5
"350","111015_4",2,30,"flower_pos","flower_pos","flower_inhib","inhibition","control","target","distractor","L","flower_pos","Y",1007,5
"351","111015_4",2,31,"flower_pos","flower_inhib","flower_pos","inhibition","control","distractor","target","R","flower_pos","Y",930,5
"352","111015_4",2,32,"flower_pos","flower_inhib","flower_pos","inhibition","control","distractor","target","R","flower_pos","Y",1377,5
"353","111015_4",2,33,"flower_inhib","flower_pos","flower_inhib","inhibition","inhib","distractor","target","L","flower_pos","N",801,5
"354","111015_4",2,20,"car_control","car_control","car_foil","implicature","unambiguous","target","distractor","L","car_control","Y",1354,5
"355","111015_4",2,35,"cat_pos","cat_inhib","cat_pos","inhibition","control","distractor","target","L","cat_inhib","N",1265,5
"356","111015_4",2,14,"cookie_pos","cookie_pos","cookie_neg","negation","positive","target","distractor","L","cookie_pos","Y",1917,5
"357","111015_4",2,15,"banana_neg","banana_neg","banana_pos","negation","negative","target","distractor","L","banana_neg","Y",1567,5
"358","111015_4",2,36,"cat_pos","cat_inhib","cat_pos","inhibition","control","distractor","target","R","cat_pos","Y",512,5
"359","111015_4",2,77,"apple_pos","apple_inhib","apple_pos","inhibition","control","distractor","target","R","apple_pos","Y",1328,5
"360","111015_4",2,78,"apple_pos","apple_inhib","apple_pos","inhibition","control","distractor","target","R","apple_pos","Y",836,5
"361","111015_4",2,79,"apple_inhib","apple_pos","apple_inhib","inhibition","inhib","distractor","target","R","apple_inhib","Y",1105,5
"362","111015_4",2,1,"cat_implic","cat_implic","cat_control","implicature","implicature","target","distractor","L","cat_implic","Y",2525,5
"363","111015_4",2,2,"bicycle_control","bicycle_control","bicycle_foil","implicature","unambiguous","target","distractor","L","bicycle_control","Y",2528,5
"364","111015_4",2,3,"cup_implic","cup_implic","cup_control","implicature","implicature","target","distractor","L","cup_implic","Y",1309,5
"365","111015_4",2,4,"teddybear_implic","teddybear_implic","teddybear_control","implicature","implicature","target","distractor","L","teddybear_implic","Y",1373,5
"366","111015_4",2,18,"flower_implic","flower_implic","flower_control","implicature","implicature","target","distractor","L","flower_implic","Y",1896,5
"367","111015_4",2,19,"cat_control","cat_foil","cat_control","implicature","unambiguous","distractor","target","R","cat_control","Y",1810,5
"368","111015_4",2,37,"car_neg","car_pos","car_neg","negation","negative","distractor","target","R","car_neg","Y",1129,5
"369","111015_4",2,38,"banana_neg","banana_pos","banana_neg","negation","negative","distractor","target","R","banana_neg","Y",1912,5
"370","111015_4",2,9,"banana_control","banana_foil","banana_control","implicature","unambiguous","distractor","target","R","banana_control","Y",2380,5
"371","111015_4",2,10,"flower_implic","flower_control","flower_implic","implicature","implicature","distractor","target","R","flower_implic","Y",1839,5
"372","111015_4",2,29,"cup_neg","cup_pos","cup_neg","negation","negative","distractor","target","R","cup_neg","Y",1098,5
"373","111015_4",2,30,"apple_neg","apple_pos","apple_neg","negation","negative","distractor","target","R","apple_neg","Y",1166,5
"374","111015_4",2,13,"apple_implic","apple_control","apple_implic","implicature","implicature","distractor","target","R","apple_implic","Y",1019,5
"375","111015_4",2,14,"dog_control","dog_foil","dog_control","implicature","unambiguous","distractor","target","R","dog_control","Y",2156,5
"376","111015_4",2,15,"cup_control","cup_foil","cup_control","implicature","unambiguous","distractor","target","R","cup_control","Y",1423,5
"377","111015_4",2,16,"teddybear_implic","teddybear_control","teddybear_implic","implicature","implicature","distractor","target","R","teddybear_implic","Y",1563,5
"378","111015_4",2,17,"bicycle_implic","bicycle_control","bicycle_implic","implicature","implicature","distractor","target","R","bicycle_implic","Y",1017,5
"379","111015_4",2,10,"car_pos","car_pos","car_neg","negation","positive","target","distractor","L","car_pos","Y",1097,5
"380","111015_4",2,11,"teddybear_pos","teddybear_neg","teddybear_pos","negation","positive","distractor","target","R","teddybear_pos","Y",841,5
"381","111015_4",2,34,"cat_pos","cat_pos","cat_inhib","inhibition","control","target","distractor","R","cat_inhib","N",1165,5
"382","111015_4",2,36,"bird_control","bird_foil","bird_control","implicature","unambiguous","distractor","target","R","bird_control","Y",1107,5
"383","111015_4",2,39,"dog_pos","dog_pos","dog_neg","negation","positive","target","distractor","L","dog_pos","Y",1407,5
"384","111015_4",2,40,"teddybear_pos","teddybear_neg","teddybear_pos","negation","positive","distractor","target","R","teddybear_pos","Y",824,5
"385","111015_4",2,41,"cup_neg","cup_pos","cup_neg","negation","negative","distractor","target","R","cup_neg","Y",974.000000000001,5
"386","111015_4",2,65,"dog_pos","dog_pos","dog_inhib","inhibition","control","target","distractor","L","dog_pos","Y",1216,5
"387","111015_4",2,26,"lamp_control","lamp_control","lamp_foil","implicature","unambiguous","target","distractor","L","lamp_control","Y",1539,5
"388","111015_4",2,27,"cookie_control","cookie_control","cookie_foil","implicature","unambiguous","target","distractor","L","cookie_control","Y",1536,5
"389","111015_4",2,7,"banana_pos","banana_neg","banana_pos","negation","positive","distractor","target","R","banana_pos","Y",1431,5
"390","111015_4",2,28,"flower_pos","flower_pos","flower_inhib","inhibition","control","target","distractor","L","flower_pos","Y",1273,5
"391","111015_4",2,9,"apple_pos","apple_neg","apple_pos","negation","positive","distractor","target","R","apple_pos","Y",1489,5
"392","111015_4",2,60,"dog_neg","dog_neg","dog_pos","negation","negative","target","distractor","L","dog_neg","Y",1371,5
"393","111015_4",2,35,"banana_neg","banana_pos","banana_neg","negation","negative","distractor","target","R","banana_neg","Y",1092,5
"394","111015_4",2,36,"car_pos","car_neg","car_pos","negation","positive","distractor","target","R","car_pos","Y",1392,5
"395","111015_4",2,12,"cup_neg","cup_pos","cup_neg","negation","negative","distractor","target","R","cup_neg","Y",1501,5
"396","111015_4",2,35,"banana_control","banana_control","banana_foil","implicature","unambiguous","target","distractor","L","banana_control","Y",1426,5
"397","111015_4",2,74,"apple_pos","apple_pos","apple_inhib","inhibition","control","target","distractor","L","apple_pos","Y",1243,5
"398","111015_4",2,75,"apple_pos","apple_pos","apple_inhib","inhibition","control","target","distractor","L","apple_pos","Y",707,5
"399","111015_4",2,16,"dog_neg","dog_neg","dog_pos","negation","negative","target","distractor","L","dog_neg","Y",1872,5
"400","111015_4",2,17,"bird_pos","bird_pos","bird_neg","negation","positive","target","distractor","L","bird_pos","Y",3241,5
"401","111015_4",2,56,"car_pos","car_neg","car_pos","negation","positive","distractor","target","R","car_pos","Y",2342,5
"402","111015_4",2,41,"lamp_control","lamp_control","lamp_foil","implicature","unambiguous","target","distractor","L","lamp_control","Y",2451,5
"403","111015_4",2,42,"apple_implic","apple_implic","apple_control","implicature","implicature","target","distractor","L","apple_implic","Y",1554,5
"404","111015_4",2,43,"cookie_control","cookie_foil","cookie_control","implicature","unambiguous","distractor","target","R","cookie_control","Y",1341,5
"405","111015_4",2,34,"cat_pos","cat_pos","cat_neg","negation","positive","target","distractor","L","cat_pos","Y",2832,5
"406","111015_4",2,31,"teddybear_control","teddybear_control","teddybear_foil","implicature","unambiguous","target","distractor","L","teddybear_control","Y",2449,5
"407","111015_4",2,32,"flower_implic","flower_implic","flower_control","implicature","implicature","target","distractor","L","flower_implic","Y",1785,5
"408","111015_4",2,68,"car_pos","car_pos","car_inhib","inhibition","control","target","distractor","L","car_pos","Y",930,5
"409","111015_4",2,13,"apple_neg","apple_neg","apple_pos","negation","negative","target","distractor","L","apple_neg","Y",1513,5
"410","111015_4",2,73,"car_inhib","car_pos","car_inhib","inhibition","inhib","distractor","target","R","car_inhib","Y",1187,5
"411","111015_4",2,51,"bird_neg","bird_neg","bird_pos","negation","negative","target","distractor","L","bird_neg","Y",1210,5
"412","111015_4",2,52,"apple_pos","apple_pos","apple_neg","negation","positive","target","distractor","L","apple_pos","Y",1752,5
"413","111015_4",2,11,"car_implic","car_implic","car_control","implicature","implicature","target","distractor","L","car_implic","Y",1351,5
"414","111015_4",2,12,"lamp_control","lamp_control","lamp_foil","implicature","unambiguous","target","distractor","L","lamp_control","Y",1410,5
"415","111015_4",2,5,"lamp_neg","lamp_neg","lamp_pos","negation","negative","target","distractor","L","lamp_neg","Y",1512,5
"416","111015_4",2,28,"car_control","car_control","car_foil","implicature","unambiguous","target","distractor","R","car_foil","N",1954,5
"417","111015_4",2,33,"bird_neg","bird_pos","bird_neg","negation","negative","distractor","target","R","bird_neg","Y",1321,5
"418","111015_4",2,30,"bicycle_control","bicycle_foil","bicycle_control","implicature","unambiguous","distractor","target","R","bicycle_control","Y",1320,5
"419","111015_4",2,8,"dog_neg","dog_pos","dog_neg","negation","negative","distractor","target","R","dog_neg","Y",1481,5
"420","111015_4",2,69,"car_pos","car_pos","car_inhib","inhibition","control","target","distractor","L","car_pos","Y",903,5
"421","111015_4",2,45,"cat_pos","cat_pos","cat_neg","negation","positive","target","distractor","L","cat_pos","Y",2109,5
"422","111015_4",2,70,"car_pos","car_pos","car_inhib","inhibition","control","target","distractor","L","car_pos","Y",968,5
"423","111015_4",2,33,"cat_implic","cat_implic","cat_control","implicature","implicature","target","distractor","L","cat_implic","Y",1637,5
"424","111015_4",2,34,"apple_implic","apple_control","apple_implic","implicature","implicature","distractor","target","R","apple_implic","Y",1372,5
"425","111015_4",2,50,"flower_neg","flower_neg","flower_pos","negation","negative","target","distractor","L","flower_neg","Y",1720,5
"426","111015_4",2,42,"bird_pos","bird_pos","bird_neg","negation","positive","target","distractor","L","bird_pos","Y",1928,5
"427","111015_4",2,4,"bicycle_neg","bicycle_pos","bicycle_neg","negation","negative","distractor","target","L","bicycle_pos","N",1735,5
"428","111015_4",2,43,"apple_neg","apple_pos","apple_neg","negation","negative","distractor","target","L","apple_pos","N",2007,5
"429","111015_4",2,57,"cookie_pos","cookie_pos","cookie_neg","negation","positive","target","distractor","L","cookie_pos","Y",1568,5
"430","111015_4",2,29,"cup_implic","cup_control","cup_implic","implicature","implicature","distractor","target","R","cup_implic","Y",2319,5
"431","111015_4",2,59,"cat_pos","cat_pos","cat_neg","negation","positive","target","distractor","L","cat_pos","Y",817,5
"432","111015_4",2,47,"bicycle_pos","bicycle_pos","bicycle_neg","negation","positive","target","distractor","L","bicycle_pos","Y",1444,5
"433","111015_4",2,67,"car_pos","car_pos","car_inhib","inhibition","control","target","distractor","L","car_pos","Y",1262,5
"434","111015_4",2,71,"car_pos","car_inhib","car_pos","inhibition","control","distractor","target","R","car_pos","Y",1547,5
"435","111015_4",2,46,"cookie_neg","cookie_pos","cookie_neg","negation","negative","distractor","target","R","cookie_neg","Y",1246,5
"436","111015_4",2,55,"cup_neg","cup_pos","cup_neg","negation","negative","distractor","target","R","cup_neg","Y",771.000000000001,5
"437","111015_4",2,72,"car_pos","car_pos","car_inhib","inhibition","control","target","distractor","L","car_pos","Y",1034,5
"438","111015_4",2,66,"dog_inhib","dog_inhib","dog_pos","inhibition","inhib","target","distractor","L","dog_inhib","Y",1586,5
"439","111015_4",2,76,"apple_pos","apple_inhib","apple_pos","inhibition","control","distractor","target","R","apple_pos","Y",1570,5
"440","111015_4",2,44,"lamp_neg","lamp_neg","lamp_pos","negation","negative","target","distractor","R","lamp_pos","N",1320,5
"441","111015_4",2,54,"bicycle_pos","bicycle_pos","bicycle_neg","negation","positive","target","distractor","L","bicycle_pos","Y",1035,5
"442","111015_4",2,58,"teddybear_pos","teddybear_pos","teddybear_neg","negation","positive","target","distractor","L","teddybear_pos","Y",842,5
"443","111015_4",2,49,"banana_pos","banana_neg","banana_pos","negation","positive","distractor","target","L","banana_neg","N",1236,5
"444","111015_4",2,53,"lamp_pos","lamp_pos","lamp_neg","negation","positive","target","distractor","L","lamp_pos","Y",946,5
"445","111015_4",2,48,"flower_pos","flower_pos","flower_neg","negation","positive","target","distractor","L","flower_pos","Y",1447,5
"446","111015_4",2,6,"bird_neg","bird_neg","bird_pos","negation","negative","target","distractor","L","bird_neg","Y",1566,5
"447","111015_4",2,25,"dog_implic","dog_control","dog_implic","implicature","implicature","distractor","target","R","dog_implic","Y",1538,5
"448","111015_4",2,24,"cookie_control","cookie_control","cookie_foil","implicature","unambiguous","target","distractor","L","cookie_control","Y",1066,5
"449","111115_1",1,25,"car_pos","car_neg","car_pos","negation","positive","distractor","target","R","car_pos","Y",1162,6
"450","111115_1",1,23,"banana_pos","banana_pos","banana_neg","negation","positive","target","distractor","L","banana_pos","Y",3966,6
"451","111115_1",1,49,"lamp_implic","lamp_implic","lamp_control","implicature","implicature","target","distractor","L","lamp_implic","Y",1387,6
"452","111115_1",1,24,"car_neg","car_pos","car_neg","negation","negative","distractor","target","R","car_neg","Y",1032,6
"453","111115_1",1,44,"bicycle_implic","bicycle_control","bicycle_implic","implicature","implicature","distractor","target","L","bicycle_control","N",754,6
"454","111115_1",1,52,"banana_implic","banana_control","banana_implic","implicature","implicature","distractor","target","R","banana_implic","Y",1370,6
"455","111115_1",1,46,"cup_control","cup_foil","cup_control","implicature","unambiguous","distractor","target","R","cup_control","Y",1138,6
"456","111115_1",1,47,"dog_implic","dog_implic","dog_control","implicature","implicature","target","distractor","L","dog_implic","Y",860,6
"457","111115_1",1,48,"apple_implic","apple_implic","apple_control","implicature","implicature","target","distractor","R","apple_control","N",577,6
"458","111115_1",1,43,"flower_implic","flower_implic","flower_control","implicature","implicature","target","distractor","R","flower_control","N",1001,6
"459","111115_1",1,45,"teddybear_control","teddybear_control","teddybear_foil","implicature","unambiguous","target","distractor","R","teddybear_foil","N",622,6
"460","111115_1",1,60,"cat_implic","cat_implic","cat_control","implicature","implicature","target","distractor","L","cat_implic","Y",2243,6
"461","111115_1",1,22,"dog_pos","dog_pos","dog_neg","negation","positive","target","distractor","L","dog_pos","Y",1272,6
"462","111115_1",1,2,"cat_pos","cat_neg","cat_pos","negation","positive","distractor","target","R","cat_pos","Y",1024,6
"463","111115_1",1,3,"teddybear_pos","teddybear_neg","teddybear_pos","negation","positive","distractor","target","R","teddybear_pos","Y",1043,6
"464","111115_1",1,50,"car_implic","car_implic","car_control","implicature","implicature","target","distractor","R","car_control","N",829,6
"465","111115_1",1,1,"dog_neg","dog_pos","dog_neg","negation","negative","distractor","target","R","dog_neg","Y",3089,6
"466","111115_1",1,51,"flower_implic","flower_implic","flower_control","implicature","implicature","target","distractor","L","flower_implic","Y",1578,6
"467","111115_1",1,39,"banana_implic","banana_control","banana_implic","implicature","implicature","distractor","target","R","banana_implic","Y",1090,6
"468","111115_1",1,54,"dog_control","dog_foil","dog_control","implicature","unambiguous","distractor","target","L","dog_foil","N",1403,6
"469","111115_1",1,27,"cat_pos","cat_neg","cat_pos","negation","positive","distractor","target","L","cat_neg","N",1179,6
"470","111115_1",1,55,"apple_implic","apple_control","apple_implic","implicature","implicature","distractor","target","R","apple_implic","Y",2412,6
"471","111115_1",1,56,"bird_control","bird_foil","bird_control","implicature","unambiguous","distractor","target","R","bird_control","Y",1145,6
"472","111115_1",1,21,"teddybear_pos","teddybear_neg","teddybear_pos","negation","positive","distractor","target","R","teddybear_pos","Y",1974,6
"473","111115_1",1,4,"apple_pos","apple_inhib","apple_pos","inhibition","control","distractor","target","R","apple_pos","Y",784,6
"474","111115_1",1,5,"apple_pos","apple_pos","apple_inhib","inhibition","control","target","distractor","L","apple_pos","Y",614,6
"475","111115_1",1,6,"apple_inhib","apple_inhib","apple_pos","inhibition","inhib","target","distractor","L","apple_inhib","Y",1203,6
"476","111115_1",1,7,"car_pos","car_pos","car_inhib","inhibition","control","target","distractor","L","car_pos","Y",1109,6
"477","111115_1",1,4,"cookie_neg","cookie_neg","cookie_pos","negation","negative","target","distractor","L","cookie_neg","Y",1687,6
"478","111115_1",1,60,"lamp_pos","lamp_pos","lamp_inhib","inhibition","control","target","distractor","L","lamp_pos","Y",717,6
"479","111115_1",1,61,"lamp_pos","lamp_inhib","lamp_pos","inhibition","control","distractor","target","R","lamp_pos","Y",514,6
"480","111115_1",1,53,"cookie_implic","cookie_implic","cookie_control","implicature","implicature","target","distractor","L","cookie_implic","Y",1148,6
"481","111115_1",1,30,"cookie_pos","cookie_neg","cookie_pos","negation","positive","distractor","target","R","cookie_pos","Y",805,6
"482","111115_1",1,31,"apple_pos","apple_pos","apple_neg","negation","positive","target","distractor","L","apple_pos","Y",954,6
"483","111115_1",1,18,"apple_neg","apple_pos","apple_neg","negation","negative","distractor","target","R","apple_neg","Y",1464,6
"484","111115_1",1,19,"bird_pos","bird_neg","bird_pos","negation","positive","distractor","target","R","bird_pos","Y",1456,6
"485","111115_1",1,57,"teddybear_implic","teddybear_implic","teddybear_control","implicature","implicature","target","distractor","R","teddybear_control","N",912,6
"486","111115_1",1,58,"cup_control","cup_control","cup_foil","implicature","unambiguous","target","distractor","L","cup_control","Y",1004,6
"487","111115_1",1,59,"bicycle_implic","bicycle_implic","bicycle_control","implicature","implicature","target","distractor","R","bicycle_control","N",889,6
"488","111115_1",1,57,"cookie_pos","cookie_pos","cookie_inhib","inhibition","control","target","distractor","L","cookie_pos","Y",612,6
"489","111115_1",1,58,"cookie_inhib","cookie_inhib","cookie_pos","inhibition","inhib","target","distractor","R","cookie_pos","N",641,6
"490","111115_1",1,26,"banana_pos","banana_pos","banana_neg","negation","positive","target","distractor","L","banana_pos","Y",957,6
"491","111115_1",1,36,"dog_control","dog_foil","dog_control","implicature","unambiguous","distractor","target","R","dog_control","Y",2019,6
"492","111115_1",1,9,"car_pos","car_inhib","car_pos","inhibition","control","distractor","target","R","car_pos","Y",645,6
"493","111115_1",1,28,"bird_neg","bird_neg","bird_pos","negation","negative","target","distractor","L","bird_neg","Y",4422,6
"494","111115_1",1,16,"cat_neg","cat_neg","cat_pos","negation","negative","target","distractor","L","cat_neg","Y",1429,6
"495","111115_1",1,17,"lamp_neg","lamp_pos","lamp_neg","negation","negative","distractor","target","R","lamp_neg","Y",1912,6
"496","111115_1",1,12,"car_inhib","car_inhib","car_pos","inhibition","inhib","target","distractor","R","car_pos","N",630,6
"497","111115_1",1,13,"dog_pos","dog_pos","dog_inhib","inhibition","control","target","distractor","L","dog_pos","Y",2741,6
"498","111115_1",1,20,"cup_pos","cup_neg","cup_pos","negation","positive","distractor","target","R","cup_pos","Y",1634,6
"499","111115_1",1,3,"apple_pos","apple_inhib","apple_pos","inhibition","control","distractor","target","R","apple_pos","Y",1137,6
"500","111115_1",1,42,"cat_pos","cat_inhib","cat_pos","inhibition","control","distractor","target","R","cat_pos","Y",695,6
"501","111115_1",1,43,"cat_pos","cat_inhib","cat_pos","inhibition","control","distractor","target","R","cat_pos","Y",579,6
"502","111115_1",1,44,"cat_inhib","cat_pos","cat_inhib","inhibition","inhib","distractor","target","R","cat_inhib","Y",1022,6
"503","111115_1",1,59,"lamp_pos","lamp_inhib","lamp_pos","inhibition","control","distractor","target","R","lamp_pos","Y",2948,6
"504","111115_1",1,8,"car_pos","car_pos","car_inhib","inhibition","control","target","distractor","L","car_pos","Y",808,6
"505","111115_1",1,21,"banana_implic","banana_implic","banana_control","implicature","implicature","target","distractor","R","banana_control","N",1227,6
"506","111115_1",1,22,"car_control","car_foil","car_control","implicature","unambiguous","distractor","target","R","car_control","Y",1651,6
"507","111115_1",1,29,"teddybear_neg","teddybear_pos","teddybear_neg","negation","negative","distractor","target","R","teddybear_neg","Y",1176,6
"508","111115_1",1,11,"car_pos","car_pos","car_inhib","inhibition","control","target","distractor","L","car_pos","Y",697,6
"509","111115_1",1,25,"bird_control","bird_control","bird_foil","implicature","unambiguous","target","distractor","L","bird_control","Y",1474,6
"510","111115_1",1,67,"bird_pos","bird_inhib","bird_pos","inhibition","control","distractor","target","R","bird_pos","Y",511,6
"511","111115_1",1,14,"dog_pos","dog_inhib","dog_pos","inhibition","control","distractor","target","R","dog_pos","Y",913,6
"512","111115_1",1,15,"dog_pos","dog_inhib","dog_pos","inhibition","control","distractor","target","R","dog_pos","Y",865,6
"513","111115_1",1,16,"dog_pos","dog_pos","dog_inhib","inhibition","control","target","distractor","L","dog_pos","Y",1168,6
"514","111115_1",1,17,"dog_pos","dog_pos","dog_inhib","inhibition","control","target","distractor","L","dog_pos","Y",995,6
"515","111115_1",1,18,"cookie_control","cookie_foil","cookie_control","implicature","unambiguous","distractor","target","R","cookie_control","Y",1042,6
"516","111115_1",1,45,"flower_pos","flower_inhib","flower_pos","inhibition","control","distractor","target","R","flower_pos","Y",1221,6
"517","111115_1",1,20,"lamp_implic","lamp_implic","lamp_control","implicature","implicature","target","distractor","L","lamp_implic","Y",1273,6
"518","111115_1",1,77,"cup_inhib","cup_inhib","cup_pos","inhibition","inhib","target","distractor","R","cup_pos","N",720,6
"519","111115_1",1,37,"cookie_control","cookie_control","cookie_foil","implicature","unambiguous","target","distractor","L","cookie_control","Y",774,6
"520","111115_1",1,38,"bird_control","bird_foil","bird_control","implicature","unambiguous","distractor","target","R","bird_control","Y",809,6
"521","111115_1",1,35,"bicycle_pos","bicycle_inhib","bicycle_pos","inhibition","control","distractor","target","R","bicycle_pos","Y",690,6
"522","111115_1",1,36,"bicycle_pos","bicycle_pos","bicycle_inhib","inhibition","control","target","distractor","L","bicycle_pos","Y",617,6
"523","111115_1",1,40,"lamp_control","lamp_control","lamp_foil","implicature","unambiguous","target","distractor","L","lamp_control","Y",777,6
"524","111115_1",1,41,"car_control","car_foil","car_control","implicature","unambiguous","distractor","target","R","car_control","Y",628,6
"525","111115_1",1,42,"cat_control","cat_control","cat_foil","implicature","unambiguous","target","distractor","L","cat_control","Y",1095,6
"526","111115_1",1,41,"cat_pos","cat_inhib","cat_pos","inhibition","control","distractor","target","R","cat_pos","Y",686,6
"527","111115_1",1,1,"banana_control","banana_control","banana_foil","implicature","unambiguous","target","distractor","L","banana_control","Y",4707,6
"528","111115_1",1,2,"cup_implic","cup_control","cup_implic","implicature","implicature","distractor","target","R","cup_implic","Y",1546,6
"529","111115_1",1,19,"apple_control","apple_foil","apple_control","implicature","unambiguous","distractor","target","R","apple_control","Y",1316,6
"530","111115_1",1,35,"lamp_implic","lamp_implic","lamp_control","implicature","implicature","target","distractor","L","lamp_implic","Y",977,6
"531","111115_1",1,46,"flower_pos","flower_inhib","flower_pos","inhibition","control","distractor","target","R","flower_pos","Y",536,6
"532","111115_1",1,47,"flower_pos","flower_inhib","flower_pos","inhibition","control","distractor","target","R","flower_pos","Y",370,6
"533","111115_1",1,48,"flower_pos","flower_inhib","flower_pos","inhibition","control","distractor","target","R","flower_pos","Y",468,6
"534","111115_1",1,49,"flower_pos","flower_pos","flower_inhib","inhibition","control","target","distractor","L","flower_pos","Y",666,6
"535","111115_1",1,9,"lamp_implic","lamp_control","lamp_implic","implicature","implicature","distractor","target","R","lamp_implic","Y",2241,6
"536","111115_1",1,10,"car_pos","car_pos","car_inhib","inhibition","control","target","distractor","L","car_pos","Y",609,6
"537","111115_1",1,50,"flower_pos","flower_inhib","flower_pos","inhibition","control","distractor","target","R","flower_pos","Y",646,6
"538","111115_1",1,51,"flower_inhib","flower_inhib","flower_pos","inhibition","inhib","target","distractor","L","flower_inhib","Y",1140,6
"539","111115_1",1,52,"cookie_pos","cookie_inhib","cookie_pos","inhibition","control","distractor","target","R","cookie_pos","Y",1091,6
"540","111115_1",1,53,"cookie_pos","cookie_pos","cookie_inhib","inhibition","control","target","distractor","L","cookie_pos","Y",923,6
"541","111115_1",1,54,"cookie_pos","cookie_pos","cookie_inhib","inhibition","control","target","distractor","L","cookie_pos","Y",739,6
"542","111115_1",1,3,"apple_control","apple_foil","apple_control","implicature","unambiguous","distractor","target","R","apple_control","Y",1351,6
"543","111115_1",1,4,"cat_implic","cat_implic","cat_control","implicature","implicature","target","distractor","L","cat_implic","Y",2603,6
"544","111115_1",1,38,"flower_neg","flower_neg","flower_pos","negation","negative","target","distractor","L","flower_neg","Y",545,6
"545","111115_1",1,39,"cat_pos","cat_neg","cat_pos","negation","positive","distractor","target","R","cat_pos","Y",1412,6
"546","111115_1",1,40,"car_neg","car_neg","car_pos","negation","negative","target","distractor","L","car_neg","Y",915,6
"547","111115_1",1,41,"lamp_pos","lamp_neg","lamp_pos","negation","positive","distractor","target","R","lamp_pos","Y",890,6
"548","111115_1",1,62,"lamp_pos","lamp_inhib","lamp_pos","inhibition","control","distractor","target","R","lamp_pos","Y",828,6
"549","111115_1",1,63,"lamp_pos","lamp_inhib","lamp_pos","inhibition","control","distractor","target","R","lamp_pos","Y",550,6
"550","111115_1",1,26,"banana_implic","banana_implic","banana_control","implicature","implicature","target","distractor","R","banana_control","N",979,6
"551","111115_1",1,27,"apple_implic","apple_control","apple_implic","implicature","implicature","distractor","target","L","apple_control","N",970,6
"552","111115_1",1,71,"cup_pos","cup_inhib","cup_pos","inhibition","control","distractor","target","R","cup_pos","Y",761,6
"553","111115_1",1,72,"cup_pos","cup_pos","cup_inhib","inhibition","control","target","distractor","L","cup_pos","Y",1329,6
"554","111115_1",1,73,"cup_pos","cup_pos","cup_inhib","inhibition","control","target","distractor","L","cup_pos","Y",1132,6
"555","111115_1",1,55,"cookie_pos","cookie_pos","cookie_inhib","inhibition","control","target","distractor","L","cookie_pos","Y",643,6
"556","111115_1",1,56,"cookie_pos","cookie_inhib","cookie_pos","inhibition","control","distractor","target","R","cookie_pos","Y",781,6
"557","111115_1",1,76,"cup_pos","cup_pos","cup_inhib","inhibition","control","target","distractor","L","cup_pos","Y",1027,6
"558","111115_1",1,32,"bicycle_pos","bicycle_inhib","bicycle_pos","inhibition","control","distractor","target","R","bicycle_pos","Y",2232,6
"559","111115_1",1,33,"bicycle_pos","bicycle_pos","bicycle_inhib","inhibition","control","target","distractor","L","bicycle_pos","Y",955,6
"560","111115_1",1,34,"bicycle_pos","bicycle_pos","bicycle_inhib","inhibition","control","target","distractor","L","bicycle_pos","Y",1224,6
"561","111115_1",1,15,"cookie_neg","cookie_pos","cookie_neg","negation","negative","distractor","target","L","cookie_pos","N",1607,6
"562","111115_1",1,58,"cat_pos","cat_neg","cat_pos","negation","positive","distractor","target","R","cat_pos","Y",664,6
"563","111115_1",1,59,"flower_neg","flower_neg","flower_pos","negation","negative","target","distractor","L","flower_neg","Y",904,6
"564","111115_1",1,60,"cookie_neg","cookie_pos","cookie_neg","negation","negative","distractor","target","R","cookie_neg","Y",782,6
"565","111115_1",1,1,"apple_pos","apple_pos","apple_inhib","inhibition","control","target","distractor","L","apple_pos","Y",2022,6
"566","111115_1",1,2,"apple_pos","apple_pos","apple_inhib","inhibition","control","target","distractor","L","apple_pos","Y",1225,6
"567","111115_1",1,40,"cat_pos","cat_pos","cat_inhib","inhibition","control","target","distractor","L","cat_pos","Y",776,6
"568","111115_1",1,35,"flower_neg","flower_neg","flower_pos","negation","negative","target","distractor","L","flower_neg","Y",2377,6
"569","111115_1",1,36,"lamp_neg","lamp_neg","lamp_pos","negation","negative","target","distractor","L","lamp_neg","Y",1272,6
"570","111115_1",1,37,"teddybear_neg","teddybear_neg","teddybear_pos","negation","negative","target","distractor","R","teddybear_pos","N",716.999999999998,6
"571","111115_1",1,5,"cookie_control","cookie_foil","cookie_control","implicature","unambiguous","distractor","target","R","cookie_control","Y",1217,6
"572","111115_1",1,6,"teddybear_control","teddybear_foil","teddybear_control","implicature","unambiguous","distractor","target","R","teddybear_control","Y",1389,6
"573","111115_1",1,7,"dog_control","dog_control","dog_foil","implicature","unambiguous","target","distractor","L","dog_control","Y",1562,6
"574","111115_1",1,8,"bicycle_control","bicycle_foil","bicycle_control","implicature","unambiguous","distractor","target","R","bicycle_control","Y",1241,6
"575","111115_1",1,42,"cup_neg","cup_pos","cup_neg","negation","negative","distractor","target","R","cup_neg","Y",1162,6
"576","111115_1",1,43,"bicycle_pos","bicycle_pos","bicycle_neg","negation","positive","target","distractor","L","bicycle_pos","Y",1184,6
"577","111115_1",1,11,"flower_control","flower_control","flower_foil","implicature","unambiguous","target","distractor","L","flower_control","Y",984,6
"578","111115_1",1,32,"cup_pos","cup_neg","cup_pos","negation","positive","distractor","target","R","cup_pos","Y",1306,6
"579","111115_1",1,33,"dog_neg","dog_neg","dog_pos","negation","negative","target","distractor","L","dog_neg","Y",1067,6
"580","111115_1",1,34,"bicycle_pos","bicycle_neg","bicycle_pos","negation","positive","distractor","target","L","bicycle_neg","N",1393,6
"581","111115_1",1,30,"teddybear_implic","teddybear_implic","teddybear_control","implicature","implicature","target","distractor","R","teddybear_control","N",876,6
"582","111115_1",1,74,"cup_pos","cup_pos","cup_inhib","inhibition","control","target","distractor","L","cup_pos","Y",577,6
"583","111115_1",1,75,"cup_pos","cup_pos","cup_inhib","inhibition","control","target","distractor","L","cup_pos","Y",478,6
"584","111115_1",1,18,"dog_pos","dog_pos","dog_inhib","inhibition","control","target","distractor","L","dog_pos","Y",951,6
"585","111115_1",1,19,"dog_inhib","dog_pos","dog_inhib","inhibition","inhib","distractor","target","R","dog_inhib","Y",789,6
"586","111115_1",1,20,"teddybear_pos","teddybear_inhib","teddybear_pos","inhibition","control","distractor","target","R","teddybear_pos","Y",1598,6
"587","111115_1",1,21,"teddybear_pos","teddybear_inhib","teddybear_pos","inhibition","control","distractor","target","R","teddybear_pos","Y",856,6
"588","111115_1",1,57,"bicycle_neg","bicycle_neg","bicycle_pos","negation","negative","target","distractor","L","bicycle_neg","Y",1075,6
"589","111115_1",1,56,"lamp_pos","lamp_neg","lamp_pos","negation","positive","distractor","target","R","lamp_pos","Y",1744,6
"590","111115_1",1,64,"lamp_inhib","lamp_inhib","lamp_pos","inhibition","inhib","target","distractor","L","lamp_inhib","Y",1491,6
"591","111115_1",1,65,"bird_pos","bird_inhib","bird_pos","inhibition","control","distractor","target","R","bird_pos","Y",956,6
"592","111115_1",1,28,"cat_control","cat_foil","cat_control","implicature","unambiguous","distractor","target","R","cat_control","Y",2273,6
"593","111115_1",1,29,"flower_control","flower_foil","flower_control","implicature","unambiguous","distractor","target","R","flower_control","Y",966,6
"594","111115_1",1,14,"dog_implic","dog_implic","dog_control","implicature","implicature","target","distractor","L","dog_implic","Y",1851,6
"595","111115_1",1,15,"flower_implic","flower_implic","flower_control","implicature","implicature","target","distractor","L","flower_implic","Y",1397,6
"596","111115_1",1,16,"bird_implic","bird_implic","bird_control","implicature","implicature","target","distractor","R","bird_control","N",1275,6
"597","111115_1",1,34,"cookie_control","cookie_foil","cookie_control","implicature","unambiguous","distractor","target","R","cookie_control","Y",810,6
"598","111115_1",1,12,"banana_neg","banana_pos","banana_neg","negation","negative","distractor","target","R","banana_neg","Y",1065,6
"599","111115_1",1,13,"flower_neg","flower_pos","flower_neg","negation","negative","distractor","target","R","flower_neg","Y",1400,6
"600","111115_1",1,14,"bicycle_neg","bicycle_pos","bicycle_neg","negation","negative","distractor","target","L","bicycle_pos","N",845.000000000001,6
"601","111115_1",1,54,"banana_neg","banana_neg","banana_pos","negation","negative","target","distractor","R","banana_pos","N",795.000000000001,6
"602","111115_1",1,23,"cup_control","cup_control","cup_foil","implicature","unambiguous","target","distractor","L","cup_control","Y",867,6
"603","111115_1",1,24,"teddybear_implic","teddybear_implic","teddybear_control","implicature","implicature","target","distractor","R","teddybear_control","N",1000,6
"604","111115_1",1,37,"bicycle_inhib","bicycle_inhib","bicycle_pos","inhibition","inhib","target","distractor","L","bicycle_inhib","Y",1080,6
"605","111115_1",1,38,"cat_pos","cat_inhib","cat_pos","inhibition","control","distractor","target","R","cat_pos","Y",743,6
"606","111115_1",1,39,"cat_pos","cat_inhib","cat_pos","inhibition","control","distractor","target","R","cat_pos","Y",739,6
"607","111115_1",1,69,"bird_pos","bird_inhib","bird_pos","inhibition","control","distractor","target","R","bird_pos","Y",614,6
"608","111115_1",1,70,"bird_inhib","bird_pos","bird_inhib","inhibition","inhib","distractor","target","R","bird_inhib","Y",1275,6
"609","111115_1",1,9,"apple_pos","apple_pos","apple_neg","negation","positive","target","distractor","L","apple_pos","Y",1190,6
"610","111115_1",1,17,"cat_implic","cat_implic","cat_control","implicature","implicature","target","distractor","L","cat_implic","Y",1289,6
"611","111115_1",1,11,"flower_neg","flower_neg","flower_pos","negation","negative","target","distractor","L","flower_neg","Y",1096,6
"612","111115_1",1,33,"car_implic","car_control","car_implic","implicature","implicature","distractor","target","L","car_control","N",1510,6
"613","111115_1",1,53,"dog_neg","dog_neg","dog_pos","negation","negative","target","distractor","L","dog_neg","Y",1305,6
"614","111115_1",1,31,"banana_inhib","banana_inhib","banana_pos","inhibition","inhib","target","distractor","R","banana_pos","N",827,6
"615","111115_1",1,55,"bird_pos","bird_pos","bird_neg","negation","positive","target","distractor","L","bird_pos","Y",1382,6
"616","111115_1",1,26,"banana_pos","banana_inhib","banana_pos","inhibition","control","distractor","target","R","banana_pos","Y",952,6
"617","111115_1",1,10,"car_control","car_control","car_foil","implicature","unambiguous","target","distractor","L","car_control","Y",995,6
"618","111115_1",1,12,"bird_control","bird_foil","bird_control","implicature","unambiguous","distractor","target","R","bird_control","Y",939,6
"619","111115_1",1,13,"bicycle_control","bicycle_foil","bicycle_control","implicature","unambiguous","distractor","target","R","bicycle_control","Y",929,6
"620","111115_1",1,31,"bicycle_implic","bicycle_implic","bicycle_control","implicature","implicature","target","distractor","R","bicycle_control","N",776,6
"621","111115_1",1,27,"banana_pos","banana_inhib","banana_pos","inhibition","control","distractor","target","R","banana_pos","Y",694,6
"622","111115_1",1,28,"banana_pos","banana_inhib","banana_pos","inhibition","control","distractor","target","R","banana_pos","Y",669,6
"623","111115_1",1,10,"bird_pos","bird_neg","bird_pos","negation","positive","distractor","target","R","bird_pos","Y",770,6
"624","111115_1",1,51,"car_neg","car_pos","car_neg","negation","negative","distractor","target","R","car_neg","Y",1085,6
"625","111115_1",1,32,"cup_control","cup_foil","cup_control","implicature","unambiguous","distractor","target","R","cup_control","Y",1180,6
"626","111115_1",1,52,"apple_pos","apple_neg","apple_pos","negation","positive","distractor","target","R","apple_pos","Y",1003,6
"627","111115_1",1,30,"banana_pos","banana_pos","banana_inhib","inhibition","control","target","distractor","L","banana_pos","Y",874,6
"628","111115_1",1,68,"bird_pos","bird_pos","bird_inhib","inhibition","control","target","distractor","L","bird_pos","Y",628,6
"629","111115_1",1,44,"bird_neg","bird_neg","bird_pos","negation","negative","target","distractor","R","bird_pos","N",562,6
"630","111115_1",1,24,"teddybear_pos","teddybear_inhib","teddybear_pos","inhibition","control","distractor","target","R","teddybear_pos","Y",794,6
"631","111115_1",1,25,"teddybear_inhib","teddybear_pos","teddybear_inhib","inhibition","inhib","distractor","target","R","teddybear_inhib","Y",974,6
"632","111115_1",1,29,"banana_pos","banana_inhib","banana_pos","inhibition","control","distractor","target","R","banana_pos","Y",714,6
"633","111115_1",1,8,"lamp_pos","lamp_pos","lamp_neg","negation","positive","target","distractor","L","lamp_pos","Y",949,6
"634","111115_1",1,7,"bicycle_neg","bicycle_pos","bicycle_neg","negation","negative","distractor","target","R","bicycle_neg","Y",1346,6
"635","111115_1",1,66,"bird_pos","bird_pos","bird_inhib","inhibition","control","target","distractor","L","bird_pos","Y",837,6
"636","111115_1",1,5,"car_pos","car_neg","car_pos","negation","positive","distractor","target","R","car_pos","Y",1259,6
"637","111115_1",1,50,"teddybear_pos","teddybear_neg","teddybear_pos","negation","positive","distractor","target","R","teddybear_pos","Y",984,6
"638","111115_1",1,49,"cup_neg","cup_pos","cup_neg","negation","negative","distractor","target","R","cup_neg","Y",1076,6
"639","111115_1",1,46,"banana_pos","banana_neg","banana_pos","negation","positive","distractor","target","R","banana_pos","Y",891,6
"640","111115_1",1,6,"cup_pos","cup_pos","cup_neg","negation","positive","target","distractor","L","cup_pos","Y",1091,6
"641","111115_1",1,23,"teddybear_pos","teddybear_inhib","teddybear_pos","inhibition","control","distractor","target","R","teddybear_pos","Y",832,6
"642","111115_1",1,22,"teddybear_pos","teddybear_pos","teddybear_inhib","inhibition","control","target","distractor","L","teddybear_pos","Y",839,6
"643","111115_1",1,47,"cookie_neg","cookie_pos","cookie_neg","negation","negative","distractor","target","R","cookie_neg","Y",1883,6
"644","111115_1",1,45,"dog_pos","dog_pos","dog_neg","negation","positive","target","distractor","L","dog_pos","Y",4292,6
"645","111115_1",1,48,"apple_pos","apple_neg","apple_pos","negation","positive","distractor","target","L","apple_neg","N",2411,6
"646","111115_11",1,33,"car_control","car_foil","car_control","implicature","unambiguous","distractor","target","R","car_control","Y",2856,7
"647","111115_11",1,18,"apple_pos","apple_neg","apple_pos","negation","positive","distractor","target","R","apple_pos","Y",1057,7
"648","111115_11",1,44,"bicycle_control","bicycle_control","bicycle_foil","implicature","unambiguous","target","distractor","L","bicycle_control","Y",1408,7
"649","111115_11",1,49,"lamp_implic","lamp_control","lamp_implic","implicature","implicature","distractor","target","R","lamp_implic","Y",1701,7
"650","111115_11",1,32,"cup_control","cup_control","cup_foil","implicature","unambiguous","target","distractor","L","cup_control","Y",1484,7
"651","111115_11",1,43,"flower_implic","flower_control","flower_implic","implicature","implicature","distractor","target","R","flower_implic","Y",1515,7
"652","111115_11",1,46,"cup_implic","cup_control","cup_implic","implicature","implicature","distractor","target","L","cup_control","N",1412,7
"653","111115_11",1,47,"dog_implic","dog_control","dog_implic","implicature","implicature","distractor","target","R","dog_implic","Y",2024,7
"654","111115_11",1,42,"cat_implic","cat_implic","cat_control","implicature","implicature","target","distractor","L","cat_implic","Y",1409,7
"655","111115_11",1,17,"lamp_pos","lamp_neg","lamp_pos","negation","positive","distractor","target","R","lamp_pos","Y",979,7
"656","111115_11",1,5,"car_neg","car_pos","car_neg","negation","negative","distractor","target","R","car_neg","Y",1273,7
"657","111115_11",1,34,"cookie_control","cookie_control","cookie_foil","implicature","unambiguous","target","distractor","L","cookie_control","Y",1186,7
"658","111115_11",1,52,"apple_pos","apple_pos","apple_neg","negation","positive","target","distractor","L","apple_pos","Y",120,7
"659","111115_11",1,41,"car_control","car_foil","car_control","implicature","unambiguous","distractor","target","R","car_control","Y",1339,7
"660","111115_11",1,38,"bird_implic","bird_control","bird_implic","implicature","implicature","distractor","target","R","bird_implic","Y",1836,7
"661","111115_11",1,39,"banana_control","banana_control","banana_foil","implicature","unambiguous","target","distractor","L","banana_control","Y",1626,7
"662","111115_11",1,19,"bird_pos","bird_neg","bird_pos","negation","positive","distractor","target","R","bird_pos","Y",1532,7
"663","111115_11",1,28,"bird_neg","bird_pos","bird_neg","negation","negative","distractor","target","R","bird_neg","Y",1332,7
"664","111115_11",1,45,"teddybear_control","teddybear_foil","teddybear_control","implicature","unambiguous","distractor","target","R","teddybear_control","Y",1534,7
"665","111115_11",1,29,"teddybear_neg","teddybear_neg","teddybear_pos","negation","negative","target","distractor","L","teddybear_neg","Y",2044,7
"666","111115_11",1,30,"cookie_neg","cookie_neg","cookie_pos","negation","negative","target","distractor","L","cookie_neg","Y",1703,7
"667","111115_11",1,48,"apple_implic","apple_control","apple_implic","implicature","implicature","distractor","target","R","apple_implic","Y",1120,7
"668","111115_11",1,13,"bicycle_implic","bicycle_implic","bicycle_control","implicature","implicature","target","distractor","L","bicycle_implic","Y",3982,7
"669","111115_11",1,1,"banana_control","banana_foil","banana_control","implicature","unambiguous","distractor","target","R","banana_control","Y",3275,7
"670","111115_11",1,50,"car_control","car_foil","car_control","implicature","unambiguous","distractor","target","L","car_foil","N",1221,7
"671","111115_11",1,35,"lamp_implic","lamp_implic","lamp_control","implicature","implicature","target","distractor","L","lamp_implic","Y",2006,7
"672","111115_11",1,36,"dog_control","dog_foil","dog_control","implicature","unambiguous","distractor","target","R","dog_control","Y",1559,7
"673","111115_11",1,37,"cookie_implic","cookie_control","cookie_implic","implicature","implicature","distractor","target","R","cookie_implic","Y",1405,7
"674","111115_11",1,10,"bird_neg","bird_pos","bird_neg","negation","negative","distractor","target","L","bird_pos","N",1126,7
"675","111115_11",1,40,"lamp_implic","lamp_control","lamp_implic","implicature","implicature","distractor","target","R","lamp_implic","Y",2618,7
"676","111115_11",1,12,"banana_pos","banana_neg","banana_pos","negation","positive","distractor","target","R","banana_pos","Y",1510,7
"677","111115_11",1,27,"cat_pos","cat_neg","cat_pos","negation","positive","distractor","target","R","cat_pos","Y",1330,7
"678","111115_11",1,14,"bicycle_pos","bicycle_pos","bicycle_neg","negation","positive","target","distractor","L","bicycle_pos","Y",1384,7
"679","111115_11",1,15,"cookie_neg","cookie_neg","cookie_pos","negation","negative","target","distractor","L","cookie_neg","Y",1160,7
"680","111115_11",1,16,"cat_pos","cat_neg","cat_pos","negation","positive","distractor","target","R","cat_pos","Y",1152,7
"681","111115_11",1,3,"teddybear_neg","teddybear_pos","teddybear_neg","negation","negative","distractor","target","R","teddybear_neg","Y",1592,7
"682","111115_11",1,4,"cookie_neg","cookie_pos","cookie_neg","negation","negative","distractor","target","R","cookie_neg","Y",1291,7
"683","111115_11",1,30,"teddybear_implic","teddybear_control","teddybear_implic","implicature","implicature","distractor","target","R","teddybear_implic","Y",1820,7
"684","111115_11",1,20,"cup_neg","cup_neg","cup_pos","negation","negative","target","distractor","L","cup_neg","Y",1167,7
"685","111115_11",1,21,"teddybear_pos","teddybear_neg","teddybear_pos","negation","positive","distractor","target","R","teddybear_pos","Y",1182,7
"686","111115_11",1,22,"dog_neg","dog_pos","dog_neg","negation","negative","distractor","target","R","dog_neg","Y",2081,7
"687","111115_11",1,23,"banana_neg","banana_neg","banana_pos","negation","negative","target","distractor","L","banana_neg","Y",1466,7
"688","111115_11",1,11,"flower_neg","flower_neg","flower_pos","negation","negative","target","distractor","L","flower_neg","Y",1943,7
"689","111115_11",1,26,"banana_neg","banana_neg","banana_pos","negation","negative","target","distractor","L","banana_neg","Y",1307,7
"690","111115_11",1,13,"flower_neg","flower_pos","flower_neg","negation","negative","distractor","target","R","flower_neg","Y",1397,7
"691","111115_11",1,10,"car_control","car_foil","car_control","implicature","unambiguous","distractor","target","L","car_foil","N",1714,7
"692","111115_11",1,11,"flower_control","flower_foil","flower_control","implicature","unambiguous","distractor","target","R","flower_control","Y",2502,7
"693","111115_11",1,12,"bird_implic","bird_control","bird_implic","implicature","implicature","distractor","target","L","bird_control","N",1297,7
"694","111115_11",1,54,"banana_pos","banana_pos","banana_neg","negation","positive","target","distractor","R","banana_neg","N",3,7
"695","111115_11",1,55,"bird_neg","bird_pos","bird_neg","negation","negative","distractor","target","R","bird_neg","Y",2772,7
"696","111115_11",1,56,"lamp_neg","lamp_pos","lamp_neg","negation","negative","distractor","target","L","lamp_pos","N",1100,7
"697","111115_11",1,31,"bicycle_control","bicycle_control","bicycle_foil","implicature","unambiguous","target","distractor","L","bicycle_control","Y",2135,7
"698","111115_11",1,45,"dog_neg","dog_pos","dog_neg","negation","negative","distractor","target","R","dog_neg","Y",2082,7
"699","111115_11",1,46,"banana_pos","banana_pos","banana_neg","negation","positive","target","distractor","L","banana_pos","Y",1408,7
"700","111115_11",1,47,"cookie_neg","cookie_pos","cookie_neg","negation","negative","distractor","target","L","cookie_pos","N",1295,7
"701","111115_11",1,24,"car_neg","car_pos","car_neg","negation","negative","distractor","target","R","car_neg","Y",1036,7
"702","111115_11",1,49,"cup_neg","cup_pos","cup_neg","negation","negative","distractor","target","L","cup_pos","N",3186,7
"703","111115_11",1,25,"car_pos","car_neg","car_pos","negation","positive","distractor","target","R","car_pos","Y",1584,7
"704","111115_11",1,51,"car_neg","car_pos","car_neg","negation","negative","distractor","target","L","car_pos","N",22.9999999999995,7
"705","111115_11",1,34,"bicycle_pos","bicycle_pos","bicycle_inhib","inhibition","control","target","distractor","L","bicycle_pos","Y",1100,7
"706","111115_11",1,2,"cat_pos","cat_neg","cat_pos","negation","positive","distractor","target","R","cat_pos","Y",2004,7
"707","111115_11",1,58,"cup_implic","cup_implic","cup_control","implicature","implicature","target","distractor","L","cup_implic","Y",1530,7
"708","111115_11",1,59,"bicycle_control","bicycle_control","bicycle_foil","implicature","unambiguous","target","distractor","L","bicycle_control","Y",1092,7
"709","111115_11",1,31,"apple_neg","apple_neg","apple_pos","negation","negative","target","distractor","R","apple_pos","N",847.999999999998,7
"710","111115_11",1,2,"cup_implic","cup_control","cup_implic","implicature","implicature","distractor","target","R","cup_implic","Y",1564,7
"711","111115_11",1,58,"cat_pos","cat_pos","cat_neg","negation","positive","target","distractor","L","cat_pos","Y",1447,7
"712","111115_11",1,59,"flower_neg","flower_neg","flower_pos","negation","negative","target","distractor","L","flower_neg","Y",2455,7
"713","111115_11",1,51,"flower_control","flower_control","flower_foil","implicature","unambiguous","target","distractor","R","flower_foil","N",3971,7
"714","111115_11",1,48,"apple_pos","apple_neg","apple_pos","negation","positive","distractor","target","R","apple_pos","Y",1395,7
"715","111115_11",1,53,"cookie_control","cookie_foil","cookie_control","implicature","unambiguous","distractor","target","R","cookie_control","Y",2180,7
"716","111115_11",1,50,"teddybear_pos","teddybear_pos","teddybear_neg","negation","positive","target","distractor","R","teddybear_neg","N",1385,7
"717","111115_11",1,55,"apple_implic","apple_implic","apple_control","implicature","implicature","target","distractor","L","apple_implic","Y",1240,7
"718","111115_11",1,56,"bird_control","bird_foil","bird_control","implicature","unambiguous","distractor","target","R","bird_control","Y",1451,7
"719","111115_11",1,53,"dog_neg","dog_pos","dog_neg","negation","negative","distractor","target","L","dog_pos","N",195,7
"720","111115_11",1,27,"apple_implic","apple_control","apple_implic","implicature","implicature","distractor","target","R","apple_implic","Y",1083,7
"721","111115_11",1,28,"cat_control","cat_control","cat_foil","implicature","unambiguous","target","distractor","L","cat_control","Y",1382,7
"722","111115_11",1,29,"flower_control","flower_control","flower_foil","implicature","unambiguous","target","distractor","L","flower_control","Y",1699,7
"723","111115_11",1,25,"teddybear_pos","teddybear_pos","teddybear_inhib","inhibition","control","target","distractor","L","teddybear_pos","Y",560,7
"724","111115_11",1,26,"teddybear_inhib","teddybear_inhib","teddybear_pos","inhibition","inhib","target","distractor","L","teddybear_inhib","Y",1020,7
"725","111115_11",1,27,"banana_pos","banana_inhib","banana_pos","inhibition","control","distractor","target","R","banana_pos","Y",1362,7
"726","111115_11",1,28,"banana_pos","banana_pos","banana_inhib","inhibition","control","target","distractor","L","banana_pos","Y",1167,7
"727","111115_11",1,52,"banana_implic","banana_control","banana_implic","implicature","implicature","distractor","target","L","banana_control","N",16,7
"728","111115_11",1,30,"banana_pos","banana_inhib","banana_pos","inhibition","control","distractor","target","R","banana_pos","Y",1444,7
"729","111115_11",1,54,"dog_implic","dog_control","dog_implic","implicature","implicature","distractor","target","R","dog_implic","Y",1023,7
"730","111115_11",1,32,"banana_pos","banana_inhib","banana_pos","inhibition","control","distractor","target","R","banana_pos","Y",627,7
"731","111115_11",1,33,"banana_inhib","banana_pos","banana_inhib","inhibition","inhib","distractor","target","R","banana_inhib","Y",1689,7
"732","111115_11",1,57,"teddybear_control","teddybear_control","teddybear_foil","implicature","unambiguous","target","distractor","L","teddybear_control","Y",1466,7
"733","111115_11",1,35,"bicycle_pos","bicycle_inhib","bicycle_pos","inhibition","control","distractor","target","R","bicycle_pos","Y",959,7
"734","111115_11",1,37,"bicycle_pos","bicycle_pos","bicycle_inhib","inhibition","control","target","distractor","L","bicycle_pos","Y",659,7
"735","111115_11",1,36,"bicycle_pos","bicycle_inhib","bicycle_pos","inhibition","control","distractor","target","R","bicycle_pos","Y",622,7
