"","subid","list","game.order","trial.num","word","leftpic","rightpic","game","trial.type","leftpic.type","rightpic.type","side.chosen","pic.chosen","response","date","timestamp","rt"
"1","111015_1",1,2,3,"apple_pos","apple_pos","apple_inhib","inhibition","control","target","distractor","L","apple_pos","Y","11/10/2015","13:10",42
"2","111015_1",1,2,1,"apple_pos","apple_pos","apple_inhib","inhibition","control","target","distractor","L","apple_pos","Y","11/10/2015","13:10",1507
"3","111015_1",1,2,4,"apple_pos","apple_pos","apple_inhib","inhibition","control","target","distractor","L","apple_pos","Y","11/10/2015","13:10",49
"4","111015_1",1,2,2,"apple_pos","apple_pos","apple_inhib","inhibition","control","target","distractor","L","apple_pos","Y","11/10/2015","13:10",246
"5","111015_1",1,2,5,"apple_pos","apple_pos","apple_inhib","inhibition","control","target","distractor","R","apple_inhib","N","11/10/2015","13:10",1875
"6","111015_1",1,2,6,"apple_inhib","apple_pos","apple_inhib","inhibition","inhib","distractor","target","L","apple_pos","N","11/10/2015","13:10",3373
"7","111015_1",1,2,7,"car_pos","car_pos","car_inhib","inhibition","control","target","distractor","R","car_inhib","N","11/10/2015","13:10",1868
"8","111015_1",1,2,8,"car_pos","car_pos","car_inhib","inhibition","control","target","distractor","R","car_inhib","N","11/10/2015","13:10",1743
"9","111015_1",1,2,11,"car_pos","car_inhib","car_pos","inhibition","control","distractor","target","L","car_inhib","N","11/10/2015","13:10",45
"10","111015_1",1,2,10,"car_pos","car_inhib","car_pos","inhibition","control","distractor","target","L","car_inhib","N","11/10/2015","13:10",297
"11","111015_1",1,2,9,"car_pos","car_pos","car_inhib","inhibition","control","target","distractor","L","car_pos","Y","11/10/2015","13:10",2003
"12","111015_1",1,2,12,"car_pos","car_pos","car_inhib","inhibition","control","target","distractor","R","car_inhib","N","11/10/2015","13:10",1575
"13","111015_1",1,2,13,"car_inhib","car_inhib","car_pos","inhibition","inhib","target","distractor","L","car_inhib","Y","11/10/2015","13:10",4714
"14","111015_1",1,2,14,"dog_pos","dog_inhib","dog_pos","inhibition","control","distractor","target","L","dog_inhib","N","11/10/2015","13:10",291
"15","111015_1",1,2,15,"dog_pos","dog_pos","dog_inhib","inhibition","control","target","distractor","L","dog_pos","Y","11/10/2015","13:10",3047
"16","111015_1",1,2,16,"dog_pos","dog_inhib","dog_pos","inhibition","control","distractor","target","L","dog_inhib","N","11/10/2015","13:10",2217
"17","111015_1",1,2,17,"dog_pos","dog_inhib","dog_pos","inhibition","control","distractor","target","R","dog_pos","Y","11/10/2015","13:10",1282
"18","111015_1",1,2,18,"dog_pos","dog_pos","dog_inhib","inhibition","control","target","distractor","L","dog_pos","Y","11/10/2015","13:10",1864
"19","111015_1",1,2,19,"dog_pos","dog_inhib","dog_pos","inhibition","control","distractor","target","R","dog_pos","Y","11/10/2015","13:10",1438
"20","111015_1",1,2,20,"dog_inhib","dog_inhib","dog_pos","inhibition","inhib","target","distractor","L","dog_inhib","Y","11/10/2015","13:10",2662
"21","111015_1",1,2,21,"teddybear_pos","teddybear_inhib","teddybear_pos","inhibition","control","distractor","target","R","teddybear_pos","Y","11/10/2015","13:10",1684
"22","111015_1",1,2,22,"teddybear_pos","teddybear_pos","teddybear_inhib","inhibition","control","target","distractor","L","teddybear_pos","Y","11/10/2015","13:10",1441
"23","111015_1",1,2,23,"teddybear_pos","teddybear_pos","teddybear_inhib","inhibition","control","target","distractor","L","teddybear_pos","Y","11/10/2015","13:10",1619
"24","111015_1",1,2,24,"teddybear_pos","teddybear_inhib","teddybear_pos","inhibition","control","distractor","target","R","teddybear_pos","Y","11/10/2015","13:10",1684
"25","111015_1",1,2,25,"teddybear_pos","teddybear_pos","teddybear_inhib","inhibition","control","target","distractor","L","teddybear_pos","Y","11/10/2015","13:10",1432
"26","111015_1",1,2,26,"teddybear_pos","teddybear_inhib","teddybear_pos","inhibition","control","distractor","target","R","teddybear_pos","Y","11/10/2015","13:10",1425
"27","111015_1",1,2,27,"teddybear_inhib","teddybear_inhib","teddybear_pos","inhibition","inhib","target","distractor","L","teddybear_inhib","Y","11/10/2015","13:10",1166
"28","111015_1",1,2,28,"banana_pos","banana_pos","banana_inhib","inhibition","control","target","distractor","R","banana_inhib","N","11/10/2015","13:10",1380
"29","111015_1",1,2,29,"banana_pos","banana_pos","banana_inhib","inhibition","control","target","distractor","L","banana_pos","Y","11/10/2015","13:10",1161
"30","111015_1",1,2,30,"banana_pos","banana_pos","banana_inhib","inhibition","control","target","distractor","L","banana_pos","Y","11/10/2015","13:10",1929
"31","111015_1",1,2,31,"banana_pos","banana_inhib","banana_pos","inhibition","control","distractor","target","R","banana_pos","Y","11/10/2015","13:10",1600
"32","111015_1",1,2,32,"banana_pos","banana_inhib","banana_pos","inhibition","control","distractor","target","R","banana_pos","Y","11/10/2015","13:10",1593
"33","111015_1",1,2,33,"banana_pos","banana_inhib","banana_pos","inhibition","control","distractor","target","R","banana_pos","Y","11/10/2015","13:10",969
"34","111015_1",1,2,34,"banana_inhib","banana_inhib","banana_pos","inhibition","inhib","target","distractor","L","banana_inhib","Y","11/10/2015","13:10",1721
"35","111015_1",1,2,35,"bicycle_pos","bicycle_pos","bicycle_inhib","inhibition","control","target","distractor","L","bicycle_pos","Y","11/10/2015","13:10",2183
"36","111015_1",1,2,36,"bicycle_pos","bicycle_inhib","bicycle_pos","inhibition","control","distractor","target","R","bicycle_pos","Y","11/10/2015","13:10",2655
"37","111015_1",1,2,37,"bicycle_pos","bicycle_inhib","bicycle_pos","inhibition","control","distractor","target","R","bicycle_pos","Y","11/10/2015","13:10",1251
"38","111015_1",1,2,38,"bicycle_pos","bicycle_inhib","bicycle_pos","inhibition","control","distractor","target","R","bicycle_pos","Y","11/10/2015","13:10",4216
"39","111015_1",1,2,39,"bicycle_pos","bicycle_inhib","bicycle_pos","inhibition","control","distractor","target","R","bicycle_pos","Y","11/10/2015","13:10",268
"40","111015_1",1,2,40,"bicycle_pos","bicycle_inhib","bicycle_pos","inhibition","control","distractor","target","R","bicycle_pos","Y","11/10/2015","13:10",2228
"41","111015_1",1,2,41,"bicycle_inhib","bicycle_pos","bicycle_inhib","inhibition","inhib","distractor","target","R","bicycle_inhib","Y","11/10/2015","13:10",291
"42","111015_1",1,2,42,"cat_pos","cat_inhib","cat_pos","inhibition","control","distractor","target","R","cat_pos","Y","11/10/2015","13:10",2431
"43","111015_1",1,2,43,"cat_pos","cat_inhib","cat_pos","inhibition","control","distractor","target","L","cat_inhib","N","11/10/2015","13:10",1802
"44","111015_1",1,2,44,"cat_pos","cat_pos","cat_inhib","inhibition","control","target","distractor","R","cat_inhib","N","11/10/2015","13:10",1522
"45","111015_1",1,2,45,"cat_pos","cat_inhib","cat_pos","inhibition","control","distractor","target","L","cat_inhib","N","11/10/2015","13:10",1387
"46","111015_1",1,2,46,"cat_pos","cat_inhib","cat_pos","inhibition","control","distractor","target","R","cat_pos","Y","11/10/2015","13:10",1312
"47","111015_1",1,2,47,"cat_inhib","cat_inhib","cat_pos","inhibition","inhib","target","distractor","L","cat_inhib","Y","11/10/2015","13:10",1861
"48","111015_1",1,2,48,"flower_pos","flower_inhib","flower_pos","inhibition","control","distractor","target","R","flower_pos","Y","11/10/2015","13:10",1655
"49","111015_1",1,2,49,"flower_pos","flower_pos","flower_inhib","inhibition","control","target","distractor","L","flower_pos","Y","11/10/2015","13:10",1524
"50","111015_1",1,2,50,"flower_pos","flower_pos","flower_inhib","inhibition","control","target","distractor","L","flower_pos","Y","11/10/2015","13:10",1638
"51","111015_1",1,2,51,"flower_pos","flower_pos","flower_inhib","inhibition","control","target","distractor","L","flower_pos","Y","11/10/2015","13:10",1942
"52","111015_1",1,2,52,"flower_pos","flower_inhib","flower_pos","inhibition","control","distractor","target","R","flower_pos","Y","11/10/2015","13:10",1975
"53","111015_1",1,2,53,"flower_inhib","flower_pos","flower_inhib","inhibition","inhib","distractor","target","R","flower_inhib","Y","11/10/2015","13:10",1623
"54","111015_1",1,2,54,"cookie_pos","cookie_pos","cookie_inhib","inhibition","control","target","distractor","L","cookie_pos","Y","11/10/2015","13:10",1644
"55","111015_1",1,2,55,"cookie_pos","cookie_pos","cookie_inhib","inhibition","control","target","distractor","L","cookie_pos","Y","11/10/2015","13:10",1389
"56","111015_1",1,2,56,"cookie_pos","cookie_inhib","cookie_pos","inhibition","control","distractor","target","R","cookie_pos","Y","11/10/2015","13:10",2160
"57","111015_1",1,2,57,"cookie_pos","cookie_pos","cookie_inhib","inhibition","control","target","distractor","L","cookie_pos","Y","11/10/2015","13:10",1652
"58","111015_1",1,2,58,"cookie_pos","cookie_pos","cookie_inhib","inhibition","control","target","distractor","L","cookie_pos","Y","11/10/2015","13:10",1904
"59","111015_1",1,2,59,"cookie_inhib","cookie_pos","cookie_inhib","inhibition","inhib","distractor","target","R","cookie_inhib","Y","11/10/2015","13:10",1622
"60","111015_1",1,2,60,"lamp_pos","lamp_pos","lamp_inhib","inhibition","control","target","distractor","L","lamp_pos","Y","11/10/2015","13:10",1609
"61","111015_1",1,2,61,"lamp_pos","lamp_pos","lamp_inhib","inhibition","control","target","distractor","L","lamp_pos","Y","11/10/2015","13:10",1403
"62","111015_1",1,2,62,"lamp_pos","lamp_pos","lamp_inhib","inhibition","control","target","distractor","L","lamp_pos","Y","11/10/2015","13:10",1165
"63","111015_1",1,2,63,"lamp_pos","lamp_inhib","lamp_pos","inhibition","control","distractor","target","L","lamp_inhib","N","11/10/2015","13:10",1003
"64","111015_1",1,2,64,"lamp_pos","lamp_pos","lamp_inhib","inhibition","control","target","distractor","L","lamp_pos","Y","11/10/2015","13:10",1296
"65","111015_1",1,2,65,"lamp_inhib","lamp_pos","lamp_inhib","inhibition","inhib","distractor","target","R","lamp_inhib","Y","11/10/2015","13:10",1232
"66","111015_1",1,2,66,"bird_pos","bird_inhib","bird_pos","inhibition","control","distractor","target","R","bird_pos","Y","11/10/2015","13:10",1790
"67","111015_1",1,2,67,"bird_pos","bird_inhib","bird_pos","inhibition","control","distractor","target","R","bird_pos","Y","11/10/2015","13:10",1498
"68","111015_1",1,2,68,"bird_pos","bird_inhib","bird_pos","inhibition","control","distractor","target","R","bird_pos","Y","11/10/2015","13:10",774
"69","111015_1",1,2,69,"bird_pos","bird_inhib","bird_pos","inhibition","control","distractor","target","R","bird_pos","Y","11/10/2015","13:10",735
"70","111015_1",1,2,70,"bird_pos","bird_inhib","bird_pos","inhibition","control","distractor","target","R","bird_pos","Y","11/10/2015","13:10",1394
"71","111015_1",1,2,71,"bird_pos","bird_inhib","bird_pos","inhibition","control","distractor","target","L","bird_inhib","N","11/10/2015","13:10",3482
"72","111015_1",1,2,72,"bird_inhib","bird_inhib","bird_pos","inhibition","inhib","target","distractor","L","bird_inhib","Y","11/10/2015","13:10",1848
"73","111015_1",1,2,73,"cup_pos","cup_inhib","cup_pos","inhibition","control","distractor","target","R","cup_pos","Y","11/10/2015","13:10",1322
"74","111015_1",1,2,74,"cup_pos","cup_inhib","cup_pos","inhibition","control","distractor","target","R","cup_pos","Y","11/10/2015","13:10",2003
"75","111015_1",1,2,75,"cup_pos","cup_pos","cup_inhib","inhibition","control","target","distractor","L","cup_pos","Y","11/10/2015","13:10",1405
"76","111015_1",1,2,76,"cup_pos","cup_pos","cup_inhib","inhibition","control","target","distractor","L","cup_pos","Y","11/10/2015","13:10",2230
"77","111015_1",1,2,77,"cup_pos","cup_inhib","cup_pos","inhibition","control","distractor","target","L","cup_inhib","N","11/10/2015","13:10",1129
"78","111015_1",1,2,78,"cup_pos","cup_inhib","cup_pos","inhibition","control","distractor","target","R","cup_pos","Y","11/10/2015","13:10",1447
"79","111015_1",1,2,79,"cup_inhib","cup_inhib","cup_pos","inhibition","inhib","target","distractor","L","cup_inhib","Y","11/10/2015","13:10",1739
"80","111015_1",1,2,1,"banana_control","banana_control","banana_foil","implicature","unambiguous","target","distractor","L","banana_control","Y","11/10/2015","13:10",3420
"81","111015_1",1,2,2,"cup_control","cup_control","cup_foil","implicature","unambiguous","target","distractor","L","cup_control","Y","11/10/2015","13:10",2555
"82","111015_1",1,2,3,"apple_implic","apple_control","apple_implic","implicature","implicature","distractor","target","R","apple_implic","Y","11/10/2015","13:10",1888
"83","111015_1",1,2,4,"cat_control","cat_control","cat_foil","implicature","unambiguous","target","distractor","L","cat_control","Y","11/10/2015","13:10",1573
"84","111015_1",1,2,5,"cookie_control","cookie_foil","cookie_control","implicature","unambiguous","distractor","target","R","cookie_control","Y","11/10/2015","13:10",1299
"85","111015_1",1,2,6,"teddybear_implic","teddybear_implic","teddybear_control","implicature","implicature","target","distractor","L","teddybear_implic","Y","11/10/2015","13:10",1549
"86","111015_1",1,2,7,"dog_control","dog_foil","dog_control","implicature","unambiguous","distractor","target","R","dog_control","Y","11/10/2015","13:10",1440
"87","111015_1",1,2,8,"bicycle_implic","bicycle_implic","bicycle_control","implicature","implicature","target","distractor","L","bicycle_implic","Y","11/10/2015","13:10",1328
"88","111015_1",1,2,9,"lamp_control","lamp_foil","lamp_control","implicature","unambiguous","distractor","target","R","lamp_control","Y","11/10/2015","13:10",1278
"89","111015_1",1,2,10,"car_implic","car_implic","car_control","implicature","implicature","target","distractor","L","car_implic","Y","11/10/2015","13:10",1184
"90","111015_1",1,2,11,"flower_control","flower_control","flower_foil","implicature","unambiguous","target","distractor","L","flower_control","Y","11/10/2015","13:10",2470
"91","111015_1",1,2,12,"bird_implic","bird_implic","bird_control","implicature","implicature","target","distractor","R","bird_control","N","11/10/2015","13:10",1525
"92","111015_1",1,2,13,"bicycle_control","bicycle_control","bicycle_foil","implicature","unambiguous","target","distractor","L","bicycle_control","Y","11/10/2015","13:10",1456
"93","111015_1",1,2,14,"dog_implic","dog_implic","dog_control","implicature","implicature","target","distractor","L","dog_implic","Y","11/10/2015","13:10",1602
"94","111015_1",1,2,15,"flower_implic","flower_implic","flower_control","implicature","implicature","target","distractor","L","flower_implic","Y","11/10/2015","13:10",1060
"95","111015_1",1,2,16,"bird_control","bird_control","bird_foil","implicature","unambiguous","target","distractor","L","bird_control","Y","11/10/2015","13:10",1419
"96","111015_1",1,2,17,"cat_implic","cat_implic","cat_control","implicature","implicature","target","distractor","L","cat_implic","Y","11/10/2015","13:10",1688
"97","111015_1",1,2,18,"cookie_implic","cookie_implic","cookie_control","implicature","implicature","target","distractor","R","cookie_control","N","11/10/2015","13:10",909
"98","111015_1",1,2,19,"apple_control","apple_foil","apple_control","implicature","unambiguous","distractor","target","L","apple_foil","N","11/10/2015","13:10",1215
"99","111015_1",1,2,20,"lamp_implic","lamp_implic","lamp_control","implicature","implicature","target","distractor","R","lamp_control","N","11/10/2015","13:10",1282
"100","111015_1",1,2,21,"banana_implic","banana_control","banana_implic","implicature","implicature","distractor","target","L","banana_control","N","11/10/2015","13:10",1765
"101","111015_1",1,2,22,"car_control","car_control","car_foil","implicature","unambiguous","target","distractor","R","car_foil","N","11/10/2015","13:10",802
"102","111015_1",1,2,23,"cup_control","cup_foil","cup_control","implicature","unambiguous","distractor","target","L","cup_foil","N","11/10/2015","13:10",4029
"103","111015_1",1,2,24,"teddybear_control","teddybear_control","teddybear_foil","implicature","unambiguous","target","distractor","L","teddybear_control","Y","11/10/2015","13:10",3027
"104","111015_1",1,2,25,"bird_control","bird_foil","bird_control","implicature","unambiguous","distractor","target","R","bird_control","Y","11/10/2015","13:10",2003
"105","111015_1",1,2,26,"banana_control","banana_foil","banana_control","implicature","unambiguous","distractor","target","L","banana_foil","N","11/10/2015","13:10",1627
"106","111015_1",1,2,27,"apple_implic","apple_control","apple_implic","implicature","implicature","distractor","target","R","apple_implic","Y","11/10/2015","13:10",3572
"107","111015_1",1,2,28,"cat_implic","cat_control","cat_implic","implicature","implicature","distractor","target","R","cat_implic","Y","11/10/2015","13:10",2246
"108","111015_1",1,2,29,"flower_control","flower_foil","flower_control","implicature","unambiguous","distractor","target","R","flower_control","Y","11/10/2015","13:10",3588
"109","111015_1",1,2,30,"teddybear_control","teddybear_foil","teddybear_control","implicature","unambiguous","distractor","target","R","teddybear_control","Y","11/10/2015","13:10",2812
"110","111015_1",1,2,31,"bicycle_implic","bicycle_control","bicycle_implic","implicature","implicature","distractor","target","R","bicycle_implic","Y","11/10/2015","13:10",2123
"111","111015_1",1,2,32,"cup_control","cup_control","cup_foil","implicature","unambiguous","target","distractor","L","cup_control","Y","11/10/2015","13:10",1783
"112","111015_1",1,2,33,"car_control","car_control","car_foil","implicature","unambiguous","target","distractor","L","car_control","Y","11/10/2015","13:10",1511
"113","111015_1",1,2,34,"cookie_implic","cookie_implic","cookie_control","implicature","implicature","target","distractor","R","cookie_control","N","11/10/2015","13:10",1220
"114","111015_1",1,2,35,"lamp_implic","lamp_control","lamp_implic","implicature","implicature","distractor","target","L","lamp_control","N","11/10/2015","13:10",1385
"115","111015_1",1,2,36,"dog_control","dog_foil","dog_control","implicature","unambiguous","distractor","target","R","dog_control","Y","11/10/2015","13:10",1185
"116","111015_1",1,2,37,"cookie_implic","cookie_implic","cookie_control","implicature","implicature","target","distractor","L","cookie_implic","Y","11/10/2015","13:10",944
"117","111015_1",1,2,38,"bird_implic","bird_implic","bird_control","implicature","implicature","target","distractor","R","bird_control","N","11/10/2015","13:10",753
"118","111015_1",1,2,39,"banana_implic","banana_control","banana_implic","implicature","implicature","distractor","target","R","banana_implic","Y","11/10/2015","13:10",518
"119","111015_1",1,2,40,"lamp_implic","lamp_control","lamp_implic","implicature","implicature","distractor","target","L","lamp_control","N","11/10/2015","13:10",137
"120","111015_1",1,2,42,"cat_control","cat_control","cat_foil","implicature","unambiguous","target","distractor","L","cat_control","Y","11/10/2015","13:10",122
"121","111015_1",1,2,41,"car_control","car_foil","car_control","implicature","unambiguous","distractor","target","L","car_foil","N","11/10/2015","13:10",167
"122","111015_1",1,2,43,"flower_implic","flower_implic","flower_control","implicature","implicature","target","distractor","L","flower_implic","Y","11/10/2015","13:10",129
"123","111015_1",1,2,44,"bicycle_control","bicycle_control","bicycle_foil","implicature","unambiguous","target","distractor","L","bicycle_control","Y","11/10/2015","13:10",1046
"124","111015_1",1,2,45,"teddybear_control","teddybear_foil","teddybear_control","implicature","unambiguous","distractor","target","L","teddybear_foil","N","11/10/2015","13:10",296
"125","111015_1",1,2,46,"cup_implic","cup_implic","cup_control","implicature","implicature","target","distractor","L","cup_implic","Y","11/10/2015","13:10",46
"126","111015_1",1,2,47,"dog_implic","dog_control","dog_implic","implicature","implicature","distractor","target","L","dog_control","N","11/10/2015","13:10",45
"127","111015_1",1,2,48,"apple_control","apple_control","apple_foil","implicature","unambiguous","target","distractor","L","apple_control","Y","11/10/2015","13:10",47
"128","111015_1",1,2,49,"lamp_implic","lamp_control","lamp_implic","implicature","implicature","distractor","target","R","lamp_implic","Y","11/10/2015","13:10",1024
"129","111015_1",1,2,50,"car_control","car_control","car_foil","implicature","unambiguous","target","distractor","L","car_control","Y","11/10/2015","13:10",793
"130","111015_1",1,2,51,"flower_control","flower_foil","flower_control","implicature","unambiguous","distractor","target","R","flower_control","Y","11/10/2015","13:10",1058
"131","111015_1",1,2,52,"banana_implic","banana_implic","banana_control","implicature","implicature","target","distractor","L","banana_implic","Y","11/10/2015","13:10",1525
"132","111015_1",1,2,53,"cookie_implic","cookie_implic","cookie_control","implicature","implicature","target","distractor","R","cookie_control","N","11/10/2015","13:10",802
"133","111015_1",1,2,54,"dog_control","dog_foil","dog_control","implicature","unambiguous","distractor","target","L","dog_foil","N","11/10/2015","13:10",1105
"134","111015_1",1,2,55,"apple_implic","apple_implic","apple_control","implicature","implicature","target","distractor","R","apple_control","N","11/10/2015","13:10",637
"135","111015_1",1,2,56,"bird_control","bird_control","bird_foil","implicature","unambiguous","target","distractor","L","bird_control","Y","11/10/2015","13:10",395
"136","111015_1",1,2,57,"teddybear_implic","teddybear_implic","teddybear_control","implicature","implicature","target","distractor","R","teddybear_control","N","11/10/2015","13:10",751
"137","111015_1",1,2,58,"cup_implic","cup_implic","cup_control","implicature","implicature","target","distractor","L","cup_implic","Y","11/10/2015","13:10",1347
"138","111015_1",1,2,59,"bicycle_control","bicycle_control","bicycle_foil","implicature","unambiguous","target","distractor","R","bicycle_foil","N","11/10/2015","13:10",931
"139","111015_1",1,2,60,"cat_implic","cat_control","cat_implic","implicature","implicature","distractor","target","L","cat_control","N","11/10/2015","13:10",1361
"140","111015_1",1,2,1,"dog_pos","dog_neg","dog_pos","negation","positive","distractor","target","R","dog_pos","Y","11/10/2015","13:10",1796
"141","111015_1",1,2,2,"cat_neg","cat_pos","cat_neg","negation","negative","distractor","target","L","cat_pos","N","11/10/2015","13:10",1506
"142","111015_1",1,2,3,"teddybear_neg","teddybear_pos","teddybear_neg","negation","negative","distractor","target","R","teddybear_neg","Y","11/10/2015","13:10",1992
"143","111015_1",1,2,4,"cookie_pos","cookie_neg","cookie_pos","negation","positive","distractor","target","L","cookie_neg","N","11/10/2015","13:10",1706
"144","111015_1",1,2,5,"car_neg","car_neg","car_pos","negation","negative","target","distractor","L","car_neg","Y","11/10/2015","13:10",3115
"145","111015_1",1,2,6,"cup_neg","cup_neg","cup_pos","negation","negative","target","distractor","R","cup_pos","N","11/10/2015","13:10",1579
"146","111015_1",1,2,7,"bicycle_pos","bicycle_pos","bicycle_neg","negation","positive","target","distractor","L","bicycle_pos","Y","11/10/2015","13:10",1322
"147","111015_1",1,2,8,"lamp_neg","lamp_neg","lamp_pos","negation","negative","target","distractor","R","lamp_pos","N","11/10/2015","13:10",818.999999999997
"148","111015_1",1,2,9,"apple_pos","apple_neg","apple_pos","negation","positive","distractor","target","L","apple_neg","N","11/10/2015","13:10",913
"149","111015_1",1,2,10,"bird_neg","bird_pos","bird_neg","negation","negative","distractor","target","R","bird_neg","Y","11/10/2015","13:10",696
"150","111015_1",1,2,11,"flower_pos","flower_neg","flower_pos","negation","positive","distractor","target","L","flower_neg","N","11/10/2015","13:10",962
"151","111015_1",1,2,12,"banana_pos","banana_neg","banana_pos","negation","positive","distractor","target","R","banana_pos","Y","11/10/2015","13:10",1228
"152","111015_1",1,2,13,"flower_pos","flower_pos","flower_neg","negation","positive","target","distractor","R","flower_neg","N","11/10/2015","13:10",275
"153","111015_1",1,2,14,"bicycle_neg","bicycle_neg","bicycle_pos","negation","negative","target","distractor","L","bicycle_neg","Y","11/10/2015","13:10",851.000000000001
"154","111015_1",1,2,15,"cookie_pos","cookie_neg","cookie_pos","negation","positive","distractor","target","R","cookie_pos","Y","11/10/2015","13:10",1628
"155","111015_1",1,2,16,"cat_pos","cat_pos","cat_neg","negation","positive","target","distractor","L","cat_pos","Y","11/10/2015","13:10",1593
"156","111015_1",1,2,17,"lamp_pos","lamp_neg","lamp_pos","negation","positive","distractor","target","R","lamp_pos","Y","11/10/2015","13:10",1088
"157","111015_1",1,2,18,"apple_pos","apple_pos","apple_neg","negation","positive","target","distractor","L","apple_pos","Y","11/10/2015","13:10",1069
"158","111015_1",1,2,19,"bird_pos","bird_neg","bird_pos","negation","positive","distractor","target","R","bird_pos","Y","11/10/2015","13:10",692
"159","111015_1",1,2,20,"cup_neg","cup_neg","cup_pos","negation","negative","target","distractor","L","cup_neg","Y","11/10/2015","13:10",799.000000000001
"160","111015_1",1,2,21,"teddybear_neg","teddybear_neg","teddybear_pos","negation","negative","target","distractor","L","teddybear_neg","Y","11/10/2015","13:10",1910
"161","111015_1",1,2,22,"dog_neg","dog_neg","dog_pos","negation","negative","target","distractor","L","dog_neg","Y","11/10/2015","13:10",2252
"162","111015_1",1,2,23,"banana_pos","banana_neg","banana_pos","negation","positive","distractor","target","R","banana_pos","Y","11/10/2015","13:10",956
"163","111015_1",1,2,24,"car_pos","car_neg","car_pos","negation","positive","distractor","target","L","car_neg","N","11/10/2015","13:10",957
"164","111015_1",1,2,25,"car_neg","car_neg","car_pos","negation","negative","target","distractor","R","car_pos","N","11/10/2015","13:10",982
"165","111015_1",1,2,26,"banana_pos","banana_neg","banana_pos","negation","positive","distractor","target","L","banana_neg","N","11/10/2015","13:10",2413
"166","111015_1",1,2,27,"cat_pos","cat_pos","cat_neg","negation","positive","target","distractor","R","cat_neg","N","11/10/2015","13:10",1037
"167","111015_1",1,2,28,"bird_neg","bird_pos","bird_neg","negation","negative","distractor","target","L","bird_pos","N","11/10/2015","13:10",773
"168","111015_1",1,2,29,"teddybear_pos","teddybear_neg","teddybear_pos","negation","positive","distractor","target","R","teddybear_pos","Y","11/10/2015","13:10",992
"169","111015_1",1,2,30,"cookie_neg","cookie_neg","cookie_pos","negation","negative","target","distractor","L","cookie_neg","Y","11/10/2015","13:10",1270
"170","111015_1",1,2,31,"apple_neg","apple_pos","apple_neg","negation","negative","distractor","target","R","apple_neg","Y","11/10/2015","13:10",791.999999999998
"171","111015_1",1,2,32,"cup_neg","cup_pos","cup_neg","negation","negative","distractor","target","L","cup_pos","N","11/10/2015","13:10",791.000000000001
"172","111015_1",1,2,33,"dog_neg","dog_neg","dog_pos","negation","negative","target","distractor","R","dog_pos","N","11/10/2015","13:10",1014
"173","111015_1",1,2,34,"bicycle_neg","bicycle_pos","bicycle_neg","negation","negative","distractor","target","L","bicycle_pos","N","11/10/2015","13:10",633.000000000001
"174","111015_1",1,2,35,"flower_pos","flower_neg","flower_pos","negation","positive","distractor","target","R","flower_pos","Y","11/10/2015","13:10",1106
"175","111015_1",1,2,36,"lamp_neg","lamp_neg","lamp_pos","negation","negative","target","distractor","L","lamp_neg","Y","11/10/2015","13:10",1564
"176","111015_1",1,2,37,"teddybear_pos","teddybear_neg","teddybear_pos","negation","positive","distractor","target","R","teddybear_pos","Y","11/10/2015","13:10",1572
"177","111015_1",1,2,38,"flower_neg","flower_pos","flower_neg","negation","negative","distractor","target","L","flower_pos","N","11/10/2015","13:10",848
"178","111015_1",1,2,39,"cat_neg","cat_pos","cat_neg","negation","negative","distractor","target","R","cat_neg","Y","11/10/2015","13:10",936.000000000001
"179","111015_1",1,2,40,"car_neg","car_pos","car_neg","negation","negative","distractor","target","L","car_pos","N","11/10/2015","13:10",849
"180","111015_1",1,2,41,"lamp_neg","lamp_neg","lamp_pos","negation","negative","target","distractor","R","lamp_pos","N","11/10/2015","13:10",742.999999999997
"181","111015_1",1,2,42,"cup_pos","cup_pos","cup_neg","negation","positive","target","distractor","L","cup_pos","Y","11/10/2015","13:10",1427
"182","111015_1",1,2,43,"bicycle_neg","bicycle_neg","bicycle_pos","negation","negative","target","distractor","R","bicycle_pos","N","11/10/2015","13:10",1174
"183","111015_1",1,2,44,"bird_neg","bird_neg","bird_pos","negation","negative","target","distractor","L","bird_neg","Y","11/10/2015","13:10",767
"184","111015_1",1,2,45,"dog_neg","dog_neg","dog_pos","negation","negative","target","distractor","R","dog_pos","N","11/10/2015","13:10",1209
"185","111015_1",1,2,46,"banana_neg","banana_pos","banana_neg","negation","negative","distractor","target","L","banana_pos","N","11/10/2015","13:10",741.000000000001
"186","111015_1",1,2,47,"cookie_pos","cookie_pos","cookie_neg","negation","positive","target","distractor","R","cookie_neg","N","11/10/2015","13:10",2418
"187","111015_1",1,2,48,"apple_pos","apple_pos","apple_neg","negation","positive","target","distractor","L","apple_pos","Y","11/10/2015","13:10",1490
"188","111015_1",1,2,49,"cup_pos","cup_pos","cup_neg","negation","positive","target","distractor","L","cup_pos","Y","11/10/2015","13:10",293
"189","111015_1",1,2,50,"teddybear_pos","teddybear_pos","teddybear_neg","negation","positive","target","distractor","L","teddybear_pos","Y","11/10/2015","13:10",44
"190","111015_1",1,2,51,"car_pos","car_pos","car_neg","negation","positive","target","distractor","L","car_pos","Y","11/10/2015","13:10",45
"191","111015_1",1,2,52,"apple_neg","apple_neg","apple_pos","negation","negative","target","distractor","R","apple_pos","N","11/10/2015","13:10",1626
"192","111015_1",1,2,53,"dog_pos","dog_neg","dog_pos","negation","positive","distractor","target","L","dog_neg","N","11/10/2015","13:10",1355
"193","111015_1",1,2,54,"banana_neg","banana_neg","banana_pos","negation","negative","target","distractor","R","banana_pos","N","11/10/2015","13:10",702.000000000001
"194","111015_1",1,2,55,"bird_pos","bird_pos","bird_neg","negation","positive","target","distractor","L","bird_pos","Y","11/10/2015","13:10",899
"195","111015_1",1,2,56,"lamp_pos","lamp_pos","lamp_neg","negation","positive","target","distractor","L","lamp_pos","Y","11/10/2015","13:10",295
"196","111015_1",1,2,57,"bicycle_neg","bicycle_pos","bicycle_neg","negation","negative","distractor","target","R","bicycle_neg","Y","11/10/2015","13:10",1614
"197","111015_1",1,2,58,"cat_pos","cat_pos","cat_neg","negation","positive","target","distractor","L","cat_pos","Y","11/10/2015","13:10",2307
"198","111015_1",1,2,59,"flower_pos","flower_neg","flower_pos","negation","positive","distractor","target","R","flower_pos","Y","11/10/2015","13:10",1238
"199","111015_1",1,2,60,"cookie_neg","cookie_pos","cookie_neg","negation","negative","distractor","target","R","cookie_neg","Y","11/10/2015","13:10",1758
"200","111015_2",2,2,1,"cup_pos","cup_pos","cup_inhib","inhibition","control","target","distractor","L","cup_pos","Y","11/10/2015","12:44",7018
"201","111015_2",2,2,2,"cup_pos","cup_inhib","cup_pos","inhibition","control","distractor","target","R","cup_pos","Y","11/10/2015","12:44",30293
"202","111015_2",2,2,4,"cup_pos","cup_inhib","cup_pos","inhibition","control","distractor","target","R","cup_pos","Y","11/10/2015","12:44",2275
"203","111015_2",2,2,3,"cup_pos","cup_pos","cup_inhib","inhibition","control","target","distractor","L","cup_pos","Y","11/10/2015","12:44",207115
"204","111015_2",2,2,5,"cup_pos","cup_inhib","cup_pos","inhibition","control","distractor","target","R","cup_pos","Y","11/10/2015","12:44",1825
"205","111015_3",1,6,1,"dog_pos","dog_pos","dog_neg","negation","positive","target","distractor","L","dog_pos","Y","11/10/2015","13:41",6866
"206","111015_3",1,6,2,"cat_neg","cat_neg","cat_pos","negation","negative","target","distractor","L","cat_neg","Y","11/10/2015","13:41",9054
"207","111015_3",1,6,3,"teddybear_pos","teddybear_pos","teddybear_neg","negation","positive","target","distractor","L","teddybear_pos","Y","11/10/2015","13:41",5097
"208","111015_3",1,6,4,"cookie_neg","cookie_pos","cookie_neg","negation","negative","distractor","target","R","cookie_neg","Y","11/10/2015","13:41",3137
"209","111015_3",1,6,5,"car_pos","car_pos","car_neg","negation","positive","target","distractor","L","car_pos","Y","11/10/2015","13:41",8698
"210","111015_3",1,6,6,"cup_neg","cup_neg","cup_pos","negation","negative","target","distractor","L","cup_neg","Y","11/10/2015","13:41",11195
"211","111015_3",1,6,1,"banana_implic","banana_implic","banana_control","implicature","implicature","target","distractor","L","banana_implic","Y","11/10/2015","13:41",3243
"212","111015_3",1,6,2,"cup_control","cup_control","cup_foil","implicature","unambiguous","target","distractor","L","cup_control","Y","11/10/2015","13:41",10757
"213","111015_3",1,6,3,"apple_control","apple_control","apple_foil","implicature","unambiguous","target","distractor","L","apple_control","Y","11/10/2015","13:41",9358
"214","111015_3",1,6,4,"cat_implic","cat_control","cat_implic","implicature","implicature","distractor","target","R","cat_implic","Y","11/10/2015","13:41",4862
"215","111015_3",1,6,5,"cookie_implic","cookie_implic","cookie_control","implicature","implicature","target","distractor","L","cookie_implic","Y","11/10/2015","13:41",3094
"216","111015_3",1,6,6,"teddybear_control","teddybear_foil","teddybear_control","implicature","unambiguous","distractor","target","R","teddybear_control","Y","11/10/2015","13:41",4227
"217","111015_3",1,6,1,"apple_pos","apple_inhib","apple_pos","inhibition","control","distractor","target","R","apple_pos","Y","11/10/2015","13:41",5667
"218","111015_3",1,6,2,"apple_pos","apple_inhib","apple_pos","inhibition","control","distractor","target","R","apple_pos","Y","11/10/2015","13:41",9512
"219","111015_3",1,6,3,"apple_pos","apple_inhib","apple_pos","inhibition","control","distractor","target","R","apple_pos","Y","11/10/2015","13:41",4755
"220","111015_3",1,6,4,"apple_pos","apple_pos","apple_inhib","inhibition","control","target","distractor","L","apple_pos","Y","11/10/2015","13:41",2979
"221","111015_3",1,6,5,"apple_pos","apple_inhib","apple_pos","inhibition","control","distractor","target","R","apple_pos","Y","11/10/2015","13:41",4908
"222","111015_3",1,6,6,"apple_inhib","apple_pos","apple_inhib","inhibition","inhib","distractor","target","R","apple_inhib","Y","11/10/2015","13:41",3841
"223","111015_3",1,6,7,"car_pos","car_inhib","car_pos","inhibition","control","distractor","target","R","car_pos","Y","11/10/2015","13:41",3063
"224","111015_3",1,6,8,"car_pos","car_pos","car_inhib","inhibition","control","target","distractor","L","car_pos","Y","11/10/2015","13:41",2924
"225","111015_3",1,6,9,"car_pos","car_inhib","car_pos","inhibition","control","distractor","target","R","car_pos","Y","11/10/2015","13:41",6691
"226","111015_3",1,6,10,"car_pos","car_inhib","car_pos","inhibition","control","distractor","target","R","car_pos","Y","11/10/2015","13:41",2762
"227","111015_3",1,6,11,"car_pos","car_pos","car_inhib","inhibition","control","target","distractor","L","car_pos","Y","11/10/2015","13:41",3160
"228","111015_3",1,6,12,"car_inhib","car_inhib","car_pos","inhibition","inhib","target","distractor","L","car_inhib","Y","11/10/2015","13:41",5875
"229","111015_3",1,6,13,"dog_pos","dog_pos","dog_inhib","inhibition","control","target","distractor","L","dog_pos","Y","11/10/2015","13:41",3800
"230","111015_3",1,6,14,"dog_pos","dog_pos","dog_inhib","inhibition","control","target","distractor","L","dog_pos","Y","11/10/2015","13:41",5540
"231","111015_3",1,6,15,"dog_pos","dog_inhib","dog_pos","inhibition","control","distractor","target","R","dog_pos","Y","11/10/2015","13:41",2780
"232","111015_3",1,6,16,"dog_pos","dog_inhib","dog_pos","inhibition","control","distractor","target","R","dog_pos","Y","11/10/2015","13:41",2178
"233","111015_3",1,6,17,"dog_pos","dog_inhib","dog_pos","inhibition","control","distractor","target","R","dog_pos","Y","11/10/2015","13:41",3891
"234","111015_3",1,6,18,"dog_pos","dog_pos","dog_inhib","inhibition","control","target","distractor","L","dog_pos","Y","11/10/2015","13:41",1661
"235","111015_3",1,6,19,"dog_inhib","dog_inhib","dog_pos","inhibition","inhib","target","distractor","L","dog_inhib","Y","11/10/2015","13:41",2064
"236","111015_3",1,6,20,"teddybear_pos","teddybear_inhib","teddybear_pos","inhibition","control","distractor","target","R","teddybear_pos","Y","11/10/2015","13:41",3658
"237","111015_3",1,6,21,"teddybear_pos","teddybear_inhib","teddybear_pos","inhibition","control","distractor","target","R","teddybear_pos","Y","11/10/2015","13:41",3560
"238","111015_3",1,6,22,"teddybear_pos","teddybear_pos","teddybear_inhib","inhibition","control","target","distractor","L","teddybear_pos","Y","11/10/2015","13:41",3677
"239","111015_3",1,6,23,"teddybear_pos","teddybear_inhib","teddybear_pos","inhibition","control","distractor","target","R","teddybear_pos","Y","11/10/2015","13:41",2095
"240","111015_3",1,6,24,"teddybear_pos","teddybear_inhib","teddybear_pos","inhibition","control","distractor","target","R","teddybear_pos","Y","11/10/2015","13:41",2996
"241","111015_3",1,6,25,"teddybear_inhib","teddybear_inhib","teddybear_pos","inhibition","inhib","target","distractor","L","teddybear_inhib","Y","11/10/2015","13:41",2126
"242","111015_3",1,6,26,"banana_pos","banana_pos","banana_inhib","inhibition","control","target","distractor","L","banana_pos","Y","11/10/2015","13:41",9725
"243","111015_3",1,6,27,"banana_pos","banana_pos","banana_inhib","inhibition","control","target","distractor","L","banana_pos","Y","11/10/2015","13:41",5024
"244","111015_3",1,6,28,"banana_pos","banana_pos","banana_inhib","inhibition","control","target","distractor","L","banana_pos","Y","11/10/2015","13:41",6260
"245","111015_3",1,6,29,"banana_pos","banana_inhib","banana_pos","inhibition","control","distractor","target","R","banana_pos","Y","11/10/2015","13:41",2360
"246","111015_3",1,6,30,"banana_pos","banana_inhib","banana_pos","inhibition","control","distractor","target","R","banana_pos","Y","11/10/2015","13:41",7907
"247","111015_3",1,6,31,"banana_pos","banana_inhib","banana_pos","inhibition","control","distractor","target","R","banana_pos","Y","11/10/2015","13:41",3011
"248","111015_3",1,6,32,"banana_inhib","banana_pos","banana_inhib","inhibition","inhib","distractor","target","R","banana_inhib","Y","11/10/2015","13:41",2299
"249","111015_3",1,6,33,"bicycle_pos","bicycle_inhib","bicycle_pos","inhibition","control","distractor","target","R","bicycle_pos","Y","11/10/2015","13:41",2642
"250","111015_3",1,6,34,"bicycle_pos","bicycle_pos","bicycle_inhib","inhibition","control","target","distractor","L","bicycle_pos","Y","11/10/2015","13:41",12254
"251","111015_3",1,6,35,"bicycle_pos","bicycle_inhib","bicycle_pos","inhibition","control","distractor","target","R","bicycle_pos","Y","11/10/2015","13:41",2544
"252","111015_3",1,6,36,"bicycle_pos","bicycle_inhib","bicycle_pos","inhibition","control","distractor","target","R","bicycle_pos","Y","11/10/2015","13:41",4208
"253","111015_3",1,6,37,"bicycle_pos","bicycle_pos","bicycle_inhib","inhibition","control","target","distractor","L","bicycle_pos","Y","11/10/2015","13:41",7991
"254","111015_3",1,6,38,"bicycle_inhib","bicycle_pos","bicycle_inhib","inhibition","inhib","distractor","target","R","bicycle_inhib","Y","11/10/2015","13:41",3593
"255","111015_4",2,2,1,"cup_pos","cup_pos","cup_inhib","inhibition","control","target","distractor","L","cup_pos","Y","11/10/2015","13:30",1731
"256","111015_4",2,2,2,"cup_pos","cup_pos","cup_inhib","inhibition","control","target","distractor","L","cup_pos","Y","11/10/2015","13:30",1290
"257","111015_4",2,2,3,"cup_pos","cup_pos","cup_inhib","inhibition","control","target","distractor","L","cup_pos","Y","11/10/2015","13:30",992
"258","111015_4",2,2,4,"cup_pos","cup_pos","cup_inhib","inhibition","control","target","distractor","L","cup_pos","Y","11/10/2015","13:30",713
"259","111015_4",2,2,5,"cup_pos","cup_inhib","cup_pos","inhibition","control","distractor","target","L","cup_inhib","N","11/10/2015","13:30",1591
"260","111015_4",2,2,6,"cup_inhib","cup_pos","cup_inhib","inhibition","inhib","distractor","target","L","cup_pos","N","11/10/2015","13:30",1193
"261","111015_4",2,2,7,"bird_pos","bird_pos","bird_inhib","inhibition","control","target","distractor","L","bird_pos","Y","11/10/2015","13:30",1612
"262","111015_4",2,2,8,"bird_pos","bird_pos","bird_inhib","inhibition","control","target","distractor","L","bird_pos","Y","11/10/2015","13:30",1320
"263","111015_4",2,2,9,"bird_pos","bird_inhib","bird_pos","inhibition","control","distractor","target","R","bird_pos","Y","11/10/2015","13:30",1511
"264","111015_4",2,2,10,"bird_pos","bird_pos","bird_inhib","inhibition","control","target","distractor","L","bird_pos","Y","11/10/2015","13:30",1177
"265","111015_4",2,2,11,"bird_pos","bird_pos","bird_inhib","inhibition","control","target","distractor","L","bird_pos","Y","11/10/2015","13:30",1103
"266","111015_4",2,2,12,"bird_pos","bird_inhib","bird_pos","inhibition","control","distractor","target","R","bird_pos","Y","11/10/2015","13:30",1475
"267","111015_4",2,2,13,"bird_inhib","bird_inhib","bird_pos","inhibition","inhib","target","distractor","L","bird_inhib","Y","11/10/2015","13:30",1412
"268","111015_4",2,2,14,"lamp_pos","lamp_inhib","lamp_pos","inhibition","control","distractor","target","R","lamp_pos","Y","11/10/2015","13:30",1775
"269","111015_4",2,2,15,"lamp_pos","lamp_pos","lamp_inhib","inhibition","control","target","distractor","L","lamp_pos","Y","11/10/2015","13:30",1915
"270","111015_4",2,2,16,"lamp_pos","lamp_pos","lamp_inhib","inhibition","control","target","distractor","L","lamp_pos","Y","11/10/2015","13:30",2704
"271","111015_4",2,2,17,"lamp_pos","lamp_pos","lamp_inhib","inhibition","control","target","distractor","L","lamp_pos","Y","11/10/2015","13:30",1273
"272","111015_4",2,2,18,"lamp_pos","lamp_pos","lamp_inhib","inhibition","control","target","distractor","L","lamp_pos","Y","11/10/2015","13:30",1082
"273","111015_4",2,2,19,"lamp_pos","lamp_pos","lamp_inhib","inhibition","control","target","distractor","L","lamp_pos","Y","11/10/2015","13:30",704
"274","111015_4",2,2,20,"lamp_inhib","lamp_inhib","lamp_pos","inhibition","inhib","target","distractor","L","lamp_inhib","Y","11/10/2015","13:30",1906
"275","111015_4",2,2,21,"cookie_pos","cookie_inhib","cookie_pos","inhibition","control","distractor","target","R","cookie_pos","Y","11/10/2015","13:30",1501
"276","111015_4",2,2,22,"cookie_pos","cookie_inhib","cookie_pos","inhibition","control","distractor","target","R","cookie_pos","Y","11/10/2015","13:30",1058
"277","111015_4",2,2,23,"cookie_pos","cookie_pos","cookie_inhib","inhibition","control","target","distractor","R","cookie_inhib","N","11/10/2015","13:30",818
"278","111015_4",2,2,24,"cookie_pos","cookie_pos","cookie_inhib","inhibition","control","target","distractor","L","cookie_pos","Y","11/10/2015","13:30",1017
"279","111015_4",2,2,25,"cookie_pos","cookie_inhib","cookie_pos","inhibition","control","distractor","target","R","cookie_pos","Y","11/10/2015","13:30",1466
"280","111015_4",2,2,26,"cookie_inhib","cookie_inhib","cookie_pos","inhibition","inhib","target","distractor","L","cookie_inhib","Y","11/10/2015","13:30",1643
"281","111015_4",2,2,27,"flower_pos","flower_inhib","flower_pos","inhibition","control","distractor","target","R","flower_pos","Y","11/10/2015","13:30",1256
"282","111015_4",2,2,28,"flower_pos","flower_pos","flower_inhib","inhibition","control","target","distractor","L","flower_pos","Y","11/10/2015","13:30",1273
"283","111015_4",2,2,29,"flower_pos","flower_inhib","flower_pos","inhibition","control","distractor","target","R","flower_pos","Y","11/10/2015","13:30",746
"284","111015_4",2,2,30,"flower_pos","flower_pos","flower_inhib","inhibition","control","target","distractor","L","flower_pos","Y","11/10/2015","13:30",1007
"285","111015_4",2,2,31,"flower_pos","flower_inhib","flower_pos","inhibition","control","distractor","target","R","flower_pos","Y","11/10/2015","13:30",930
"286","111015_4",2,2,32,"flower_pos","flower_inhib","flower_pos","inhibition","control","distractor","target","R","flower_pos","Y","11/10/2015","13:30",1377
"287","111015_4",2,2,33,"flower_inhib","flower_pos","flower_inhib","inhibition","inhib","distractor","target","L","flower_pos","N","11/10/2015","13:30",801
"288","111015_4",2,2,34,"cat_pos","cat_pos","cat_inhib","inhibition","control","target","distractor","R","cat_inhib","N","11/10/2015","13:30",1165
"289","111015_4",2,2,35,"cat_pos","cat_inhib","cat_pos","inhibition","control","distractor","target","L","cat_inhib","N","11/10/2015","13:30",1265
"290","111015_4",2,2,36,"cat_pos","cat_inhib","cat_pos","inhibition","control","distractor","target","R","cat_pos","Y","11/10/2015","13:30",512
"291","111015_4",2,2,37,"cat_pos","cat_pos","cat_inhib","inhibition","control","target","distractor","L","cat_pos","Y","11/10/2015","13:30",1216
"292","111015_4",2,2,38,"cat_pos","cat_inhib","cat_pos","inhibition","control","distractor","target","R","cat_pos","Y","11/10/2015","13:30",1034
"293","111015_4",2,2,39,"cat_pos","cat_inhib","cat_pos","inhibition","control","distractor","target","R","cat_pos","Y","11/10/2015","13:30",1274
"294","111015_4",2,2,40,"cat_inhib","cat_pos","cat_inhib","inhibition","inhib","distractor","target","R","cat_inhib","Y","11/10/2015","13:30",1465
"295","111015_4",2,2,41,"bicycle_pos","bicycle_inhib","bicycle_pos","inhibition","control","distractor","target","R","bicycle_pos","Y","11/10/2015","13:30",907
"296","111015_4",2,2,42,"bicycle_pos","bicycle_inhib","bicycle_pos","inhibition","control","distractor","target","R","bicycle_pos","Y","11/10/2015","13:30",562
"297","111015_4",2,2,43,"bicycle_pos","bicycle_inhib","bicycle_pos","inhibition","control","distractor","target","R","bicycle_pos","Y","11/10/2015","13:30",932
"298","111015_4",2,2,44,"bicycle_pos","bicycle_pos","bicycle_inhib","inhibition","control","target","distractor","L","bicycle_pos","Y","11/10/2015","13:30",1226
"299","111015_4",2,2,45,"bicycle_pos","bicycle_pos","bicycle_inhib","inhibition","control","target","distractor","L","bicycle_pos","Y","11/10/2015","13:30",949
"300","111015_4",2,2,46,"bicycle_inhib","bicycle_pos","bicycle_inhib","inhibition","inhib","distractor","target","R","bicycle_inhib","Y","11/10/2015","13:30",1276
"301","111015_4",2,2,47,"banana_pos","banana_pos","banana_inhib","inhibition","control","target","distractor","L","banana_pos","Y","11/10/2015","13:30",1339
"302","111015_4",2,2,48,"banana_pos","banana_inhib","banana_pos","inhibition","control","distractor","target","R","banana_pos","Y","11/10/2015","13:30",951
"303","111015_4",2,2,49,"banana_pos","banana_inhib","banana_pos","inhibition","control","distractor","target","L","banana_inhib","N","11/10/2015","13:30",874
"304","111015_4",2,2,50,"banana_pos","banana_pos","banana_inhib","inhibition","control","target","distractor","R","banana_inhib","N","11/10/2015","13:30",356
"305","111015_4",2,2,51,"banana_pos","banana_pos","banana_inhib","inhibition","control","target","distractor","L","banana_pos","Y","11/10/2015","13:30",1171
"306","111015_4",2,2,52,"banana_pos","banana_inhib","banana_pos","inhibition","control","distractor","target","R","banana_pos","Y","11/10/2015","13:30",634
"307","111015_4",2,2,53,"banana_inhib","banana_pos","banana_inhib","inhibition","inhib","distractor","target","R","banana_inhib","Y","11/10/2015","13:30",1543
"308","111015_4",2,2,54,"teddybear_pos","teddybear_inhib","teddybear_pos","inhibition","control","distractor","target","R","teddybear_pos","Y","11/10/2015","13:30",1109
"309","111015_4",2,2,55,"teddybear_pos","teddybear_pos","teddybear_inhib","inhibition","control","target","distractor","L","teddybear_pos","Y","11/10/2015","13:30",1314
"310","111015_4",2,2,56,"teddybear_pos","teddybear_pos","teddybear_inhib","inhibition","control","target","distractor","L","teddybear_pos","Y","11/10/2015","13:30",1146
"311","111015_4",2,2,57,"teddybear_pos","teddybear_inhib","teddybear_pos","inhibition","control","distractor","target","R","teddybear_pos","Y","11/10/2015","13:30",822
"312","111015_4",2,2,58,"teddybear_pos","teddybear_inhib","teddybear_pos","inhibition","control","distractor","target","R","teddybear_pos","Y","11/10/2015","13:30",1073
"313","111015_4",2,2,59,"teddybear_inhib","teddybear_pos","teddybear_inhib","inhibition","inhib","distractor","target","L","teddybear_pos","N","11/10/2015","13:30",699
"314","111015_4",2,2,60,"dog_pos","dog_pos","dog_inhib","inhibition","control","target","distractor","L","dog_pos","Y","11/10/2015","13:30",2399
"315","111015_4",2,2,61,"dog_pos","dog_inhib","dog_pos","inhibition","control","distractor","target","R","dog_pos","Y","11/10/2015","13:30",965
"316","111015_4",2,2,62,"dog_pos","dog_inhib","dog_pos","inhibition","control","distractor","target","R","dog_pos","Y","11/10/2015","13:30",780
"317","111015_4",2,2,63,"dog_pos","dog_pos","dog_inhib","inhibition","control","target","distractor","L","dog_pos","Y","11/10/2015","13:30",1081
"318","111015_4",2,2,64,"dog_pos","dog_pos","dog_inhib","inhibition","control","target","distractor","L","dog_pos","Y","11/10/2015","13:30",876
"319","111015_4",2,2,65,"dog_pos","dog_pos","dog_inhib","inhibition","control","target","distractor","L","dog_pos","Y","11/10/2015","13:30",1216
"320","111015_4",2,2,66,"dog_inhib","dog_inhib","dog_pos","inhibition","inhib","target","distractor","L","dog_inhib","Y","11/10/2015","13:30",1586
"321","111015_4",2,2,67,"car_pos","car_pos","car_inhib","inhibition","control","target","distractor","L","car_pos","Y","11/10/2015","13:30",1262
"322","111015_4",2,2,69,"car_pos","car_pos","car_inhib","inhibition","control","target","distractor","L","car_pos","Y","11/10/2015","13:30",903
"323","111015_4",2,2,68,"car_pos","car_pos","car_inhib","inhibition","control","target","distractor","L","car_pos","Y","11/10/2015","13:30",930
"324","111015_4",2,2,70,"car_pos","car_pos","car_inhib","inhibition","control","target","distractor","L","car_pos","Y","11/10/2015","13:30",968
"325","111015_4",2,2,72,"car_pos","car_pos","car_inhib","inhibition","control","target","distractor","L","car_pos","Y","11/10/2015","13:30",1034
"326","111015_4",2,2,71,"car_pos","car_inhib","car_pos","inhibition","control","distractor","target","R","car_pos","Y","11/10/2015","13:30",1547
"327","111015_4",2,2,73,"car_inhib","car_pos","car_inhib","inhibition","inhib","distractor","target","R","car_inhib","Y","11/10/2015","13:30",1187
"328","111015_4",2,2,74,"apple_pos","apple_pos","apple_inhib","inhibition","control","target","distractor","L","apple_pos","Y","11/10/2015","13:30",1243
"329","111015_4",2,2,75,"apple_pos","apple_pos","apple_inhib","inhibition","control","target","distractor","L","apple_pos","Y","11/10/2015","13:30",707
"330","111015_4",2,2,76,"apple_pos","apple_inhib","apple_pos","inhibition","control","distractor","target","R","apple_pos","Y","11/10/2015","13:30",1570
"331","111015_4",2,2,77,"apple_pos","apple_inhib","apple_pos","inhibition","control","distractor","target","R","apple_pos","Y","11/10/2015","13:30",1328
"332","111015_4",2,2,78,"apple_pos","apple_inhib","apple_pos","inhibition","control","distractor","target","R","apple_pos","Y","11/10/2015","13:30",836
"333","111015_4",2,2,79,"apple_inhib","apple_pos","apple_inhib","inhibition","inhib","distractor","target","R","apple_inhib","Y","11/10/2015","13:30",1105
"334","111015_4",2,2,1,"cat_implic","cat_implic","cat_control","implicature","implicature","target","distractor","L","cat_implic","Y","11/10/2015","13:30",2525
"335","111015_4",2,2,2,"bicycle_control","bicycle_control","bicycle_foil","implicature","unambiguous","target","distractor","L","bicycle_control","Y","11/10/2015","13:30",2528
"336","111015_4",2,2,3,"cup_implic","cup_implic","cup_control","implicature","implicature","target","distractor","L","cup_implic","Y","11/10/2015","13:30",1309
"337","111015_4",2,2,4,"teddybear_implic","teddybear_implic","teddybear_control","implicature","implicature","target","distractor","L","teddybear_implic","Y","11/10/2015","13:30",1373
"338","111015_4",2,2,5,"bird_implic","bird_control","bird_implic","implicature","implicature","distractor","target","R","bird_implic","Y","11/10/2015","13:30",1315
"339","111015_4",2,2,6,"apple_control","apple_control","apple_foil","implicature","unambiguous","target","distractor","L","apple_control","Y","11/10/2015","13:30",1608
"340","111015_4",2,2,7,"dog_implic","dog_implic","dog_control","implicature","implicature","target","distractor","L","dog_implic","Y","11/10/2015","13:30",1647
"341","111015_4",2,2,8,"cookie_control","cookie_control","cookie_foil","implicature","unambiguous","target","distractor","L","cookie_control","Y","11/10/2015","13:30",1780
"342","111015_4",2,2,9,"banana_control","banana_foil","banana_control","implicature","unambiguous","distractor","target","R","banana_control","Y","11/10/2015","13:30",2380
"343","111015_4",2,2,10,"flower_implic","flower_control","flower_implic","implicature","implicature","distractor","target","R","flower_implic","Y","11/10/2015","13:30",1839
"344","111015_4",2,2,11,"car_implic","car_implic","car_control","implicature","implicature","target","distractor","L","car_implic","Y","11/10/2015","13:30",1351
"345","111015_4",2,2,12,"lamp_control","lamp_control","lamp_foil","implicature","unambiguous","target","distractor","L","lamp_control","Y","11/10/2015","13:30",1410
"346","111015_4",2,2,13,"apple_implic","apple_control","apple_implic","implicature","implicature","distractor","target","R","apple_implic","Y","11/10/2015","13:30",1019
"347","111015_4",2,2,14,"dog_control","dog_foil","dog_control","implicature","unambiguous","distractor","target","R","dog_control","Y","11/10/2015","13:30",2156
"348","111015_4",2,2,15,"cup_control","cup_foil","cup_control","implicature","unambiguous","distractor","target","R","cup_control","Y","11/10/2015","13:30",1423
"349","111015_4",2,2,16,"teddybear_implic","teddybear_control","teddybear_implic","implicature","implicature","distractor","target","R","teddybear_implic","Y","11/10/2015","13:30",1563
"350","111015_4",2,2,17,"bicycle_implic","bicycle_control","bicycle_implic","implicature","implicature","distractor","target","R","bicycle_implic","Y","11/10/2015","13:30",1017
"351","111015_4",2,2,18,"flower_implic","flower_implic","flower_control","implicature","implicature","target","distractor","L","flower_implic","Y","11/10/2015","13:30",1896
"352","111015_4",2,2,19,"cat_control","cat_foil","cat_control","implicature","unambiguous","distractor","target","R","cat_control","Y","11/10/2015","13:30",1810
"353","111015_4",2,2,20,"car_control","car_control","car_foil","implicature","unambiguous","target","distractor","L","car_control","Y","11/10/2015","13:30",1354
"354","111015_4",2,2,21,"lamp_implic","lamp_implic","lamp_control","implicature","implicature","target","distractor","L","lamp_implic","Y","11/10/2015","13:30",2044
"355","111015_4",2,2,22,"banana_control","banana_foil","banana_control","implicature","unambiguous","distractor","target","R","banana_control","Y","11/10/2015","13:30",1793
"356","111015_4",2,2,23,"bird_control","bird_foil","bird_control","implicature","unambiguous","distractor","target","R","bird_control","Y","11/10/2015","13:30",1426
"357","111015_4",2,2,24,"cookie_control","cookie_control","cookie_foil","implicature","unambiguous","target","distractor","L","cookie_control","Y","11/10/2015","13:30",1066
"358","111015_4",2,2,25,"dog_implic","dog_control","dog_implic","implicature","implicature","distractor","target","R","dog_implic","Y","11/10/2015","13:30",1538
"359","111015_4",2,2,26,"lamp_control","lamp_control","lamp_foil","implicature","unambiguous","target","distractor","L","lamp_control","Y","11/10/2015","13:30",1539
"360","111015_4",2,2,27,"cookie_control","cookie_control","cookie_foil","implicature","unambiguous","target","distractor","L","cookie_control","Y","11/10/2015","13:30",1536
"361","111015_4",2,2,28,"car_control","car_control","car_foil","implicature","unambiguous","target","distractor","R","car_foil","N","11/10/2015","13:30",1954
"362","111015_4",2,2,29,"cup_implic","cup_control","cup_implic","implicature","implicature","distractor","target","R","cup_implic","Y","11/10/2015","13:30",2319
"363","111015_4",2,2,30,"bicycle_control","bicycle_foil","bicycle_control","implicature","unambiguous","distractor","target","R","bicycle_control","Y","11/10/2015","13:30",1320
"364","111015_4",2,2,31,"teddybear_control","teddybear_control","teddybear_foil","implicature","unambiguous","target","distractor","L","teddybear_control","Y","11/10/2015","13:30",2449
"365","111015_4",2,2,32,"flower_implic","flower_implic","flower_control","implicature","implicature","target","distractor","L","flower_implic","Y","11/10/2015","13:30",1785
"366","111015_4",2,2,33,"cat_implic","cat_implic","cat_control","implicature","implicature","target","distractor","L","cat_implic","Y","11/10/2015","13:30",1637
"367","111015_4",2,2,34,"apple_implic","apple_control","apple_implic","implicature","implicature","distractor","target","R","apple_implic","Y","11/10/2015","13:30",1372
"368","111015_4",2,2,35,"banana_control","banana_control","banana_foil","implicature","unambiguous","target","distractor","L","banana_control","Y","11/10/2015","13:30",1426
"369","111015_4",2,2,36,"bird_control","bird_foil","bird_control","implicature","unambiguous","distractor","target","R","bird_control","Y","11/10/2015","13:30",1107
"370","111015_4",2,2,37,"teddybear_control","teddybear_foil","teddybear_control","implicature","unambiguous","distractor","target","R","teddybear_control","Y","11/10/2015","13:30",2633
"371","111015_4",2,2,38,"cup_implic","cup_implic","cup_control","implicature","implicature","target","distractor","L","cup_implic","Y","11/10/2015","13:30",2337
"372","111015_4",2,2,39,"car_implic","car_control","car_implic","implicature","implicature","distractor","target","R","car_implic","Y","11/10/2015","13:30",1875
"373","111015_4",2,2,40,"banana_control","banana_control","banana_foil","implicature","unambiguous","target","distractor","L","banana_control","Y","11/10/2015","13:30",1432
"374","111015_4",2,2,41,"lamp_control","lamp_control","lamp_foil","implicature","unambiguous","target","distractor","L","lamp_control","Y","11/10/2015","13:30",2451
"375","111015_4",2,2,42,"apple_implic","apple_implic","apple_control","implicature","implicature","target","distractor","L","apple_implic","Y","11/10/2015","13:30",1554
"376","111015_4",2,2,43,"cookie_control","cookie_foil","cookie_control","implicature","unambiguous","distractor","target","R","cookie_control","Y","11/10/2015","13:30",1341
"377","111015_4",2,2,44,"cat_control","cat_foil","cat_control","implicature","unambiguous","distractor","target","R","cat_control","Y","11/10/2015","13:30",2473
"378","111015_4",2,2,45,"bird_control","bird_foil","bird_control","implicature","unambiguous","distractor","target","R","bird_control","Y","11/10/2015","13:30",2269
"379","111015_4",2,2,46,"flower_implic","flower_control","flower_implic","implicature","implicature","distractor","target","R","flower_implic","Y","11/10/2015","13:30",2577
"380","111015_4",2,2,47,"dog_implic","dog_control","dog_implic","implicature","implicature","distractor","target","R","dog_implic","Y","11/10/2015","13:30",1224
"381","111015_4",2,2,48,"bicycle_implic","bicycle_implic","bicycle_control","implicature","implicature","target","distractor","L","bicycle_implic","Y","11/10/2015","13:30",950
"382","111015_4",2,2,49,"bird_implic","bird_implic","bird_control","implicature","implicature","target","distractor","L","bird_implic","Y","11/10/2015","13:30",2018
"383","111015_4",2,2,50,"flower_control","flower_foil","flower_control","implicature","unambiguous","distractor","target","R","flower_control","Y","11/10/2015","13:30",1876
"384","111015_4",2,2,51,"car_control","car_control","car_foil","implicature","unambiguous","target","distractor","L","car_control","Y","11/10/2015","13:30",1234
"385","111015_4",2,2,52,"lamp_implic","lamp_implic","lamp_control","implicature","implicature","target","distractor","L","lamp_implic","Y","11/10/2015","13:30",1978
"386","111015_4",2,2,53,"bicycle_control","bicycle_control","bicycle_foil","implicature","unambiguous","target","distractor","L","bicycle_control","Y","11/10/2015","13:30",2109
"387","111015_4",2,2,54,"dog_control","dog_control","dog_foil","implicature","unambiguous","target","distractor","L","dog_control","Y","11/10/2015","13:30",2586
"388","111015_4",2,2,55,"teddybear_implic","teddybear_implic","teddybear_control","implicature","implicature","target","distractor","L","teddybear_implic","Y","11/10/2015","13:30",1273
"389","111015_4",2,2,56,"cookie_implic","cookie_implic","cookie_control","implicature","implicature","target","distractor","L","cookie_implic","Y","11/10/2015","13:30",914
"390","111015_4",2,2,57,"cat_implic","cat_implic","cat_control","implicature","implicature","target","distractor","L","cat_implic","Y","11/10/2015","13:30",1420
"391","111015_4",2,2,58,"apple_control","apple_foil","apple_control","implicature","unambiguous","distractor","target","R","apple_control","Y","11/10/2015","13:30",1516
"392","111015_4",2,2,59,"cup_implic","cup_control","cup_implic","implicature","implicature","distractor","target","R","cup_implic","Y","11/10/2015","13:30",1787
"393","111015_4",2,2,60,"banana_implic","banana_control","banana_implic","implicature","implicature","distractor","target","R","banana_implic","Y","11/10/2015","13:30",1847
"394","111015_4",2,2,1,"cookie_pos","cookie_neg","cookie_pos","negation","positive","distractor","target","R","cookie_pos","Y","11/10/2015","13:30",1605
"395","111015_4",2,2,2,"flower_pos","flower_neg","flower_pos","negation","positive","distractor","target","R","flower_pos","Y","11/10/2015","13:30",946
"396","111015_4",2,2,3,"cat_neg","cat_neg","cat_pos","negation","negative","target","distractor","R","cat_pos","N","11/10/2015","13:30",1552
"397","111015_4",2,2,4,"bicycle_neg","bicycle_pos","bicycle_neg","negation","negative","distractor","target","L","bicycle_pos","N","11/10/2015","13:30",1735
"398","111015_4",2,2,5,"lamp_neg","lamp_neg","lamp_pos","negation","negative","target","distractor","L","lamp_neg","Y","11/10/2015","13:30",1512
"399","111015_4",2,2,6,"bird_neg","bird_neg","bird_pos","negation","negative","target","distractor","L","bird_neg","Y","11/10/2015","13:30",1566
"400","111015_4",2,2,7,"banana_pos","banana_neg","banana_pos","negation","positive","distractor","target","R","banana_pos","Y","11/10/2015","13:30",1431
"401","111015_4",2,2,8,"dog_neg","dog_pos","dog_neg","negation","negative","distractor","target","R","dog_neg","Y","11/10/2015","13:30",1481
"402","111015_4",2,2,9,"apple_pos","apple_neg","apple_pos","negation","positive","distractor","target","R","apple_pos","Y","11/10/2015","13:30",1489
"403","111015_4",2,2,10,"car_pos","car_pos","car_neg","negation","positive","target","distractor","L","car_pos","Y","11/10/2015","13:30",1097
"404","111015_4",2,2,11,"teddybear_pos","teddybear_neg","teddybear_pos","negation","positive","distractor","target","R","teddybear_pos","Y","11/10/2015","13:30",841
"405","111015_4",2,2,12,"cup_neg","cup_pos","cup_neg","negation","negative","distractor","target","R","cup_neg","Y","11/10/2015","13:30",1501
"406","111015_4",2,2,13,"apple_neg","apple_neg","apple_pos","negation","negative","target","distractor","L","apple_neg","Y","11/10/2015","13:30",1513
"407","111015_4",2,2,14,"cookie_pos","cookie_pos","cookie_neg","negation","positive","target","distractor","L","cookie_pos","Y","11/10/2015","13:30",1917
"408","111015_4",2,2,15,"banana_neg","banana_neg","banana_pos","negation","negative","target","distractor","L","banana_neg","Y","11/10/2015","13:30",1567
"409","111015_4",2,2,16,"dog_neg","dog_neg","dog_pos","negation","negative","target","distractor","L","dog_neg","Y","11/10/2015","13:30",1872
"410","111015_4",2,2,17,"bird_pos","bird_pos","bird_neg","negation","positive","target","distractor","L","bird_pos","Y","11/10/2015","13:30",3241
"411","111015_4",2,2,18,"bicycle_neg","bicycle_pos","bicycle_neg","negation","negative","distractor","target","R","bicycle_neg","Y","11/10/2015","13:30",1901
"412","111015_4",2,2,19,"cup_pos","cup_neg","cup_pos","negation","positive","distractor","target","R","cup_pos","Y","11/10/2015","13:30",1467
"413","111015_4",2,2,20,"lamp_neg","lamp_pos","lamp_neg","negation","negative","distractor","target","R","lamp_neg","Y","11/10/2015","13:30",1265
"414","111015_4",2,2,21,"car_pos","car_neg","car_pos","negation","positive","distractor","target","R","car_pos","Y","11/10/2015","13:30",1727
"415","111015_4",2,2,22,"cat_neg","cat_neg","cat_pos","negation","negative","target","distractor","L","cat_neg","Y","11/10/2015","13:30",2306
"416","111015_4",2,2,23,"flower_neg","flower_neg","flower_pos","negation","negative","target","distractor","R","flower_pos","N","11/10/2015","13:30",846
"417","111015_4",2,2,24,"teddybear_pos","teddybear_pos","teddybear_neg","negation","positive","target","distractor","L","teddybear_pos","Y","11/10/2015","13:30",1723
"418","111015_4",2,2,25,"lamp_pos","lamp_pos","lamp_neg","negation","positive","target","distractor","L","lamp_pos","Y","11/10/2015","13:30",2587
"419","111015_4",2,2,26,"flower_neg","flower_neg","flower_pos","negation","negative","target","distractor","L","flower_neg","Y","11/10/2015","13:30",1391
"420","111015_4",2,2,27,"bicycle_neg","bicycle_pos","bicycle_neg","negation","negative","distractor","target","R","bicycle_neg","Y","11/10/2015","13:30",1285
"421","111015_4",2,2,28,"dog_neg","dog_neg","dog_pos","negation","negative","target","distractor","L","dog_neg","Y","11/10/2015","13:30",1954
"422","111015_4",2,2,29,"cup_neg","cup_pos","cup_neg","negation","negative","distractor","target","R","cup_neg","Y","11/10/2015","13:30",1098
"423","111015_4",2,2,30,"apple_neg","apple_pos","apple_neg","negation","negative","distractor","target","R","apple_neg","Y","11/10/2015","13:30",1166
"424","111015_4",2,2,31,"cookie_pos","cookie_neg","cookie_pos","negation","positive","distractor","target","R","cookie_pos","Y","11/10/2015","13:30",1009
"425","111015_4",2,2,32,"teddybear_pos","teddybear_neg","teddybear_pos","negation","positive","distractor","target","R","teddybear_pos","Y","11/10/2015","13:30",1148
"426","111015_4",2,2,33,"bird_neg","bird_pos","bird_neg","negation","negative","distractor","target","R","bird_neg","Y","11/10/2015","13:30",1321
"427","111015_4",2,2,34,"cat_pos","cat_pos","cat_neg","negation","positive","target","distractor","L","cat_pos","Y","11/10/2015","13:30",2832
"428","111015_4",2,2,35,"banana_neg","banana_pos","banana_neg","negation","negative","distractor","target","R","banana_neg","Y","11/10/2015","13:30",1092
"429","111015_4",2,2,36,"car_pos","car_neg","car_pos","negation","positive","distractor","target","R","car_pos","Y","11/10/2015","13:30",1392
"430","111015_4",2,2,37,"car_neg","car_pos","car_neg","negation","negative","distractor","target","R","car_neg","Y","11/10/2015","13:30",1129
"431","111015_4",2,2,38,"banana_neg","banana_pos","banana_neg","negation","negative","distractor","target","R","banana_neg","Y","11/10/2015","13:30",1912
"432","111015_4",2,2,39,"dog_pos","dog_pos","dog_neg","negation","positive","target","distractor","L","dog_pos","Y","11/10/2015","13:30",1407
"433","111015_4",2,2,40,"teddybear_pos","teddybear_neg","teddybear_pos","negation","positive","distractor","target","R","teddybear_pos","Y","11/10/2015","13:30",824
"434","111015_4",2,2,41,"cup_neg","cup_pos","cup_neg","negation","negative","distractor","target","R","cup_neg","Y","11/10/2015","13:30",974.000000000001
"435","111015_4",2,2,42,"bird_pos","bird_pos","bird_neg","negation","positive","target","distractor","L","bird_pos","Y","11/10/2015","13:30",1928
"436","111015_4",2,2,43,"apple_neg","apple_pos","apple_neg","negation","negative","distractor","target","L","apple_pos","N","11/10/2015","13:30",2007
"437","111015_4",2,2,44,"lamp_neg","lamp_neg","lamp_pos","negation","negative","target","distractor","R","lamp_pos","N","11/10/2015","13:30",1320
"438","111015_4",2,2,45,"cat_pos","cat_pos","cat_neg","negation","positive","target","distractor","L","cat_pos","Y","11/10/2015","13:30",2109
"439","111015_4",2,2,46,"cookie_neg","cookie_pos","cookie_neg","negation","negative","distractor","target","R","cookie_neg","Y","11/10/2015","13:30",1246
"440","111015_4",2,2,47,"bicycle_pos","bicycle_pos","bicycle_neg","negation","positive","target","distractor","L","bicycle_pos","Y","11/10/2015","13:30",1444
"441","111015_4",2,2,48,"flower_pos","flower_pos","flower_neg","negation","positive","target","distractor","L","flower_pos","Y","11/10/2015","13:30",1447
"442","111015_4",2,2,49,"banana_pos","banana_neg","banana_pos","negation","positive","distractor","target","L","banana_neg","N","11/10/2015","13:30",1236
"443","111015_4",2,2,50,"flower_neg","flower_neg","flower_pos","negation","negative","target","distractor","L","flower_neg","Y","11/10/2015","13:30",1720
"444","111015_4",2,2,51,"bird_neg","bird_neg","bird_pos","negation","negative","target","distractor","L","bird_neg","Y","11/10/2015","13:30",1210
"445","111015_4",2,2,52,"apple_pos","apple_pos","apple_neg","negation","positive","target","distractor","L","apple_pos","Y","11/10/2015","13:30",1752
"446","111015_4",2,2,53,"lamp_pos","lamp_pos","lamp_neg","negation","positive","target","distractor","L","lamp_pos","Y","11/10/2015","13:30",946
"447","111015_4",2,2,54,"bicycle_pos","bicycle_pos","bicycle_neg","negation","positive","target","distractor","L","bicycle_pos","Y","11/10/2015","13:30",1035
"448","111015_4",2,2,55,"cup_neg","cup_pos","cup_neg","negation","negative","distractor","target","R","cup_neg","Y","11/10/2015","13:30",771.000000000001
"449","111015_4",2,2,56,"car_pos","car_neg","car_pos","negation","positive","distractor","target","R","car_pos","Y","11/10/2015","13:30",2342
"450","111015_4",2,2,57,"cookie_pos","cookie_pos","cookie_neg","negation","positive","target","distractor","L","cookie_pos","Y","11/10/2015","13:30",1568
"451","111015_4",2,2,58,"teddybear_pos","teddybear_pos","teddybear_neg","negation","positive","target","distractor","L","teddybear_pos","Y","11/10/2015","13:30",842
"452","111015_4",2,2,59,"cat_pos","cat_pos","cat_neg","negation","positive","target","distractor","L","cat_pos","Y","11/10/2015","13:30",817
"453","111015_4",2,2,60,"dog_neg","dog_neg","dog_pos","negation","negative","target","distractor","L","dog_neg","Y","11/10/2015","13:30",1371
"454","111115_1",1,5,1,"banana_control","banana_control","banana_foil","implicature","unambiguous","target","distractor","L","banana_control","Y","11/11/2015","11:07",4707
"455","111115_1",1,5,2,"cup_implic","cup_control","cup_implic","implicature","implicature","distractor","target","R","cup_implic","Y","11/11/2015","11:07",1546
"456","111115_1",1,5,3,"apple_control","apple_foil","apple_control","implicature","unambiguous","distractor","target","R","apple_control","Y","11/11/2015","11:07",1351
"457","111115_1",1,5,4,"cat_implic","cat_implic","cat_control","implicature","implicature","target","distractor","L","cat_implic","Y","11/11/2015","11:07",2603
"458","111115_1",1,5,5,"cookie_control","cookie_foil","cookie_control","implicature","unambiguous","distractor","target","R","cookie_control","Y","11/11/2015","11:07",1217
"459","111115_1",1,5,6,"teddybear_control","teddybear_foil","teddybear_control","implicature","unambiguous","distractor","target","R","teddybear_control","Y","11/11/2015","11:07",1389
"460","111115_1",1,5,7,"dog_control","dog_control","dog_foil","implicature","unambiguous","target","distractor","L","dog_control","Y","11/11/2015","11:07",1562
"461","111115_1",1,5,8,"bicycle_control","bicycle_foil","bicycle_control","implicature","unambiguous","distractor","target","R","bicycle_control","Y","11/11/2015","11:07",1241
"462","111115_1",1,5,9,"lamp_implic","lamp_control","lamp_implic","implicature","implicature","distractor","target","R","lamp_implic","Y","11/11/2015","11:07",2241
"463","111115_1",1,5,10,"car_control","car_control","car_foil","implicature","unambiguous","target","distractor","L","car_control","Y","11/11/2015","11:07",995
"464","111115_1",1,5,11,"flower_control","flower_control","flower_foil","implicature","unambiguous","target","distractor","L","flower_control","Y","11/11/2015","11:07",984
"465","111115_1",1,5,12,"bird_control","bird_foil","bird_control","implicature","unambiguous","distractor","target","R","bird_control","Y","11/11/2015","11:07",939
"466","111115_1",1,5,13,"bicycle_control","bicycle_foil","bicycle_control","implicature","unambiguous","distractor","target","R","bicycle_control","Y","11/11/2015","11:07",929
"467","111115_1",1,5,14,"dog_implic","dog_implic","dog_control","implicature","implicature","target","distractor","L","dog_implic","Y","11/11/2015","11:07",1851
"468","111115_1",1,5,15,"flower_implic","flower_implic","flower_control","implicature","implicature","target","distractor","L","flower_implic","Y","11/11/2015","11:07",1397
"469","111115_1",1,5,16,"bird_implic","bird_implic","bird_control","implicature","implicature","target","distractor","R","bird_control","N","11/11/2015","11:07",1275
"470","111115_1",1,5,17,"cat_implic","cat_implic","cat_control","implicature","implicature","target","distractor","L","cat_implic","Y","11/11/2015","11:07",1289
"471","111115_1",1,5,18,"cookie_control","cookie_foil","cookie_control","implicature","unambiguous","distractor","target","R","cookie_control","Y","11/11/2015","11:07",1042
"472","111115_1",1,5,19,"apple_control","apple_foil","apple_control","implicature","unambiguous","distractor","target","R","apple_control","Y","11/11/2015","11:07",1316
"473","111115_1",1,5,20,"lamp_implic","lamp_implic","lamp_control","implicature","implicature","target","distractor","L","lamp_implic","Y","11/11/2015","11:07",1273
"474","111115_1",1,5,21,"banana_implic","banana_implic","banana_control","implicature","implicature","target","distractor","R","banana_control","N","11/11/2015","11:07",1227
"475","111115_1",1,5,22,"car_control","car_foil","car_control","implicature","unambiguous","distractor","target","R","car_control","Y","11/11/2015","11:07",1651
"476","111115_1",1,5,23,"cup_control","cup_control","cup_foil","implicature","unambiguous","target","distractor","L","cup_control","Y","11/11/2015","11:07",867
"477","111115_1",1,5,24,"teddybear_implic","teddybear_implic","teddybear_control","implicature","implicature","target","distractor","R","teddybear_control","N","11/11/2015","11:07",1000
"478","111115_1",1,5,25,"bird_control","bird_control","bird_foil","implicature","unambiguous","target","distractor","L","bird_control","Y","11/11/2015","11:07",1474
"479","111115_1",1,5,26,"banana_implic","banana_implic","banana_control","implicature","implicature","target","distractor","R","banana_control","N","11/11/2015","11:07",979
"480","111115_1",1,5,27,"apple_implic","apple_control","apple_implic","implicature","implicature","distractor","target","L","apple_control","N","11/11/2015","11:07",970
"481","111115_1",1,5,28,"cat_control","cat_foil","cat_control","implicature","unambiguous","distractor","target","R","cat_control","Y","11/11/2015","11:07",2273
"482","111115_1",1,5,29,"flower_control","flower_foil","flower_control","implicature","unambiguous","distractor","target","R","flower_control","Y","11/11/2015","11:07",966
"483","111115_1",1,5,30,"teddybear_implic","teddybear_implic","teddybear_control","implicature","implicature","target","distractor","R","teddybear_control","N","11/11/2015","11:07",876
"484","111115_1",1,5,31,"bicycle_implic","bicycle_implic","bicycle_control","implicature","implicature","target","distractor","R","bicycle_control","N","11/11/2015","11:07",776
"485","111115_1",1,5,32,"cup_control","cup_foil","cup_control","implicature","unambiguous","distractor","target","R","cup_control","Y","11/11/2015","11:07",1180
"486","111115_1",1,5,33,"car_implic","car_control","car_implic","implicature","implicature","distractor","target","L","car_control","N","11/11/2015","11:07",1510
"487","111115_1",1,5,34,"cookie_control","cookie_foil","cookie_control","implicature","unambiguous","distractor","target","R","cookie_control","Y","11/11/2015","11:07",810
"488","111115_1",1,5,35,"lamp_implic","lamp_implic","lamp_control","implicature","implicature","target","distractor","L","lamp_implic","Y","11/11/2015","11:07",977
"489","111115_1",1,5,36,"dog_control","dog_foil","dog_control","implicature","unambiguous","distractor","target","R","dog_control","Y","11/11/2015","11:07",2019
"490","111115_1",1,5,37,"cookie_control","cookie_control","cookie_foil","implicature","unambiguous","target","distractor","L","cookie_control","Y","11/11/2015","11:07",774
"491","111115_1",1,5,38,"bird_control","bird_foil","bird_control","implicature","unambiguous","distractor","target","R","bird_control","Y","11/11/2015","11:07",809
"492","111115_1",1,5,39,"banana_implic","banana_control","banana_implic","implicature","implicature","distractor","target","R","banana_implic","Y","11/11/2015","11:07",1090
"493","111115_1",1,5,40,"lamp_control","lamp_control","lamp_foil","implicature","unambiguous","target","distractor","L","lamp_control","Y","11/11/2015","11:07",777
"494","111115_1",1,5,41,"car_control","car_foil","car_control","implicature","unambiguous","distractor","target","R","car_control","Y","11/11/2015","11:07",628
"495","111115_1",1,5,42,"cat_control","cat_control","cat_foil","implicature","unambiguous","target","distractor","L","cat_control","Y","11/11/2015","11:07",1095
"496","111115_1",1,5,43,"flower_implic","flower_implic","flower_control","implicature","implicature","target","distractor","R","flower_control","N","11/11/2015","11:07",1001
"497","111115_1",1,5,44,"bicycle_implic","bicycle_control","bicycle_implic","implicature","implicature","distractor","target","L","bicycle_control","N","11/11/2015","11:07",754
"498","111115_1",1,5,45,"teddybear_control","teddybear_control","teddybear_foil","implicature","unambiguous","target","distractor","R","teddybear_foil","N","11/11/2015","11:07",622
"499","111115_1",1,5,46,"cup_control","cup_foil","cup_control","implicature","unambiguous","distractor","target","R","cup_control","Y","11/11/2015","11:07",1138
"500","111115_1",1,5,47,"dog_implic","dog_implic","dog_control","implicature","implicature","target","distractor","L","dog_implic","Y","11/11/2015","11:07",860
"501","111115_1",1,5,48,"apple_implic","apple_implic","apple_control","implicature","implicature","target","distractor","R","apple_control","N","11/11/2015","11:07",577
"502","111115_1",1,5,49,"lamp_implic","lamp_implic","lamp_control","implicature","implicature","target","distractor","L","lamp_implic","Y","11/11/2015","11:07",1387
"503","111115_1",1,5,50,"car_implic","car_implic","car_control","implicature","implicature","target","distractor","R","car_control","N","11/11/2015","11:07",829
"504","111115_1",1,5,51,"flower_implic","flower_implic","flower_control","implicature","implicature","target","distractor","L","flower_implic","Y","11/11/2015","11:07",1578
"505","111115_1",1,5,53,"cookie_implic","cookie_implic","cookie_control","implicature","implicature","target","distractor","L","cookie_implic","Y","11/11/2015","11:07",1148
"506","111115_1",1,5,52,"banana_implic","banana_control","banana_implic","implicature","implicature","distractor","target","R","banana_implic","Y","11/11/2015","11:07",1370
"507","111115_1",1,5,54,"dog_control","dog_foil","dog_control","implicature","unambiguous","distractor","target","L","dog_foil","N","11/11/2015","11:07",1403
"508","111115_1",1,5,55,"apple_implic","apple_control","apple_implic","implicature","implicature","distractor","target","R","apple_implic","Y","11/11/2015","11:07",2412
"509","111115_1",1,5,56,"bird_control","bird_foil","bird_control","implicature","unambiguous","distractor","target","R","bird_control","Y","11/11/2015","11:07",1145
"510","111115_1",1,5,57,"teddybear_implic","teddybear_implic","teddybear_control","implicature","implicature","target","distractor","R","teddybear_control","N","11/11/2015","11:07",912
"511","111115_1",1,5,58,"cup_control","cup_control","cup_foil","implicature","unambiguous","target","distractor","L","cup_control","Y","11/11/2015","11:07",1004
"512","111115_1",1,5,59,"bicycle_implic","bicycle_implic","bicycle_control","implicature","implicature","target","distractor","R","bicycle_control","N","11/11/2015","11:07",889
"513","111115_1",1,5,60,"cat_implic","cat_implic","cat_control","implicature","implicature","target","distractor","L","cat_implic","Y","11/11/2015","11:07",2243
"514","111115_1",1,5,1,"dog_neg","dog_pos","dog_neg","negation","negative","distractor","target","R","dog_neg","Y","11/11/2015","11:07",3089
"515","111115_1",1,5,2,"cat_pos","cat_neg","cat_pos","negation","positive","distractor","target","R","cat_pos","Y","11/11/2015","11:07",1024
"516","111115_1",1,5,3,"teddybear_pos","teddybear_neg","teddybear_pos","negation","positive","distractor","target","R","teddybear_pos","Y","11/11/2015","11:07",1043
"517","111115_1",1,5,4,"cookie_neg","cookie_neg","cookie_pos","negation","negative","target","distractor","L","cookie_neg","Y","11/11/2015","11:07",1687
"518","111115_1",1,5,5,"car_pos","car_neg","car_pos","negation","positive","distractor","target","R","car_pos","Y","11/11/2015","11:07",1259
"519","111115_1",1,5,6,"cup_pos","cup_pos","cup_neg","negation","positive","target","distractor","L","cup_pos","Y","11/11/2015","11:07",1091
"520","111115_1",1,5,7,"bicycle_neg","bicycle_pos","bicycle_neg","negation","negative","distractor","target","R","bicycle_neg","Y","11/11/2015","11:07",1346
"521","111115_1",1,5,8,"lamp_pos","lamp_pos","lamp_neg","negation","positive","target","distractor","L","lamp_pos","Y","11/11/2015","11:07",949
"522","111115_1",1,5,9,"apple_pos","apple_pos","apple_neg","negation","positive","target","distractor","L","apple_pos","Y","11/11/2015","11:07",1190
"523","111115_1",1,5,10,"bird_pos","bird_neg","bird_pos","negation","positive","distractor","target","R","bird_pos","Y","11/11/2015","11:07",770
"524","111115_1",1,5,11,"flower_neg","flower_neg","flower_pos","negation","negative","target","distractor","L","flower_neg","Y","11/11/2015","11:07",1096
"525","111115_1",1,5,12,"banana_neg","banana_pos","banana_neg","negation","negative","distractor","target","R","banana_neg","Y","11/11/2015","11:07",1065
"526","111115_1",1,5,13,"flower_neg","flower_pos","flower_neg","negation","negative","distractor","target","R","flower_neg","Y","11/11/2015","11:07",1400
"527","111115_1",1,5,14,"bicycle_neg","bicycle_pos","bicycle_neg","negation","negative","distractor","target","L","bicycle_pos","N","11/11/2015","11:07",845.000000000001
"528","111115_1",1,5,15,"cookie_neg","cookie_pos","cookie_neg","negation","negative","distractor","target","L","cookie_pos","N","11/11/2015","11:07",1607
"529","111115_1",1,5,16,"cat_neg","cat_neg","cat_pos","negation","negative","target","distractor","L","cat_neg","Y","11/11/2015","11:07",1429
"530","111115_1",1,5,17,"lamp_neg","lamp_pos","lamp_neg","negation","negative","distractor","target","R","lamp_neg","Y","11/11/2015","11:07",1912
"531","111115_1",1,5,18,"apple_neg","apple_pos","apple_neg","negation","negative","distractor","target","R","apple_neg","Y","11/11/2015","11:07",1464
"532","111115_1",1,5,19,"bird_pos","bird_neg","bird_pos","negation","positive","distractor","target","R","bird_pos","Y","11/11/2015","11:07",1456
"533","111115_1",1,5,20,"cup_pos","cup_neg","cup_pos","negation","positive","distractor","target","R","cup_pos","Y","11/11/2015","11:07",1634
"534","111115_1",1,5,21,"teddybear_pos","teddybear_neg","teddybear_pos","negation","positive","distractor","target","R","teddybear_pos","Y","11/11/2015","11:07",1974
"535","111115_1",1,5,22,"dog_pos","dog_pos","dog_neg","negation","positive","target","distractor","L","dog_pos","Y","11/11/2015","11:07",1272
"536","111115_1",1,5,24,"car_neg","car_pos","car_neg","negation","negative","distractor","target","R","car_neg","Y","11/11/2015","11:07",1032
"537","111115_1",1,5,23,"banana_pos","banana_pos","banana_neg","negation","positive","target","distractor","L","banana_pos","Y","11/11/2015","11:07",3966
"538","111115_1",1,5,25,"car_pos","car_neg","car_pos","negation","positive","distractor","target","R","car_pos","Y","11/11/2015","11:07",1162
"539","111115_1",1,5,26,"banana_pos","banana_pos","banana_neg","negation","positive","target","distractor","L","banana_pos","Y","11/11/2015","11:07",957
"540","111115_1",1,5,27,"cat_pos","cat_neg","cat_pos","negation","positive","distractor","target","L","cat_neg","N","11/11/2015","11:07",1179
"541","111115_1",1,5,28,"bird_neg","bird_neg","bird_pos","negation","negative","target","distractor","L","bird_neg","Y","11/11/2015","11:07",4422
"542","111115_1",1,5,29,"teddybear_neg","teddybear_pos","teddybear_neg","negation","negative","distractor","target","R","teddybear_neg","Y","11/11/2015","11:07",1176
"543","111115_1",1,5,30,"cookie_pos","cookie_neg","cookie_pos","negation","positive","distractor","target","R","cookie_pos","Y","11/11/2015","11:07",805
"544","111115_1",1,5,31,"apple_pos","apple_pos","apple_neg","negation","positive","target","distractor","L","apple_pos","Y","11/11/2015","11:07",954
"545","111115_1",1,5,32,"cup_pos","cup_neg","cup_pos","negation","positive","distractor","target","R","cup_pos","Y","11/11/2015","11:07",1306
"546","111115_1",1,5,33,"dog_neg","dog_neg","dog_pos","negation","negative","target","distractor","L","dog_neg","Y","11/11/2015","11:07",1067
"547","111115_1",1,5,34,"bicycle_pos","bicycle_neg","bicycle_pos","negation","positive","distractor","target","L","bicycle_neg","N","11/11/2015","11:07",1393
"548","111115_1",1,5,35,"flower_neg","flower_neg","flower_pos","negation","negative","target","distractor","L","flower_neg","Y","11/11/2015","11:07",2377
"549","111115_1",1,5,36,"lamp_neg","lamp_neg","lamp_pos","negation","negative","target","distractor","L","lamp_neg","Y","11/11/2015","11:07",1272
"550","111115_1",1,5,37,"teddybear_neg","teddybear_neg","teddybear_pos","negation","negative","target","distractor","R","teddybear_pos","N","11/11/2015","11:07",716.999999999998
"551","111115_1",1,5,38,"flower_neg","flower_neg","flower_pos","negation","negative","target","distractor","L","flower_neg","Y","11/11/2015","11:07",545
"552","111115_1",1,5,39,"cat_pos","cat_neg","cat_pos","negation","positive","distractor","target","R","cat_pos","Y","11/11/2015","11:07",1412
"553","111115_1",1,5,40,"car_neg","car_neg","car_pos","negation","negative","target","distractor","L","car_neg","Y","11/11/2015","11:07",915
"554","111115_1",1,5,41,"lamp_pos","lamp_neg","lamp_pos","negation","positive","distractor","target","R","lamp_pos","Y","11/11/2015","11:07",890
"555","111115_1",1,5,42,"cup_neg","cup_pos","cup_neg","negation","negative","distractor","target","R","cup_neg","Y","11/11/2015","11:07",1162
"556","111115_1",1,5,43,"bicycle_pos","bicycle_pos","bicycle_neg","negation","positive","target","distractor","L","bicycle_pos","Y","11/11/2015","11:07",1184
"557","111115_1",1,5,44,"bird_neg","bird_neg","bird_pos","negation","negative","target","distractor","R","bird_pos","N","11/11/2015","11:07",562
"558","111115_1",1,5,45,"dog_pos","dog_pos","dog_neg","negation","positive","target","distractor","L","dog_pos","Y","11/11/2015","11:07",4292
"559","111115_1",1,5,47,"cookie_neg","cookie_pos","cookie_neg","negation","negative","distractor","target","R","cookie_neg","Y","11/11/2015","11:07",1883
"560","111115_1",1,5,48,"apple_pos","apple_neg","apple_pos","negation","positive","distractor","target","L","apple_neg","N","11/11/2015","11:07",2411
"561","111115_1",1,5,49,"cup_neg","cup_pos","cup_neg","negation","negative","distractor","target","R","cup_neg","Y","11/11/2015","11:07",1076
"562","111115_1",1,5,46,"banana_pos","banana_neg","banana_pos","negation","positive","distractor","target","R","banana_pos","Y","11/11/2015","11:07",891
"563","111115_1",1,5,50,"teddybear_pos","teddybear_neg","teddybear_pos","negation","positive","distractor","target","R","teddybear_pos","Y","11/11/2015","11:07",984
"564","111115_1",1,5,51,"car_neg","car_pos","car_neg","negation","negative","distractor","target","R","car_neg","Y","11/11/2015","11:07",1085
"565","111115_1",1,5,52,"apple_pos","apple_neg","apple_pos","negation","positive","distractor","target","R","apple_pos","Y","11/11/2015","11:07",1003
"566","111115_1",1,5,53,"dog_neg","dog_neg","dog_pos","negation","negative","target","distractor","L","dog_neg","Y","11/11/2015","11:07",1305
"567","111115_1",1,5,54,"banana_neg","banana_neg","banana_pos","negation","negative","target","distractor","R","banana_pos","N","11/11/2015","11:07",795.000000000001
"568","111115_1",1,5,55,"bird_pos","bird_pos","bird_neg","negation","positive","target","distractor","L","bird_pos","Y","11/11/2015","11:07",1382
"569","111115_1",1,5,56,"lamp_pos","lamp_neg","lamp_pos","negation","positive","distractor","target","R","lamp_pos","Y","11/11/2015","11:07",1744
"570","111115_1",1,5,57,"bicycle_neg","bicycle_neg","bicycle_pos","negation","negative","target","distractor","L","bicycle_neg","Y","11/11/2015","11:07",1075
"571","111115_1",1,5,58,"cat_pos","cat_neg","cat_pos","negation","positive","distractor","target","R","cat_pos","Y","11/11/2015","11:07",664
"572","111115_1",1,5,59,"flower_neg","flower_neg","flower_pos","negation","negative","target","distractor","L","flower_neg","Y","11/11/2015","11:07",904
"573","111115_1",1,5,60,"cookie_neg","cookie_pos","cookie_neg","negation","negative","distractor","target","R","cookie_neg","Y","11/11/2015","11:07",782
"574","111115_1",1,5,1,"apple_pos","apple_pos","apple_inhib","inhibition","control","target","distractor","L","apple_pos","Y","11/11/2015","11:07",2022
"575","111115_1",1,5,2,"apple_pos","apple_pos","apple_inhib","inhibition","control","target","distractor","L","apple_pos","Y","11/11/2015","11:07",1225
"576","111115_1",1,5,3,"apple_pos","apple_inhib","apple_pos","inhibition","control","distractor","target","R","apple_pos","Y","11/11/2015","11:07",1137
"577","111115_1",1,5,4,"apple_pos","apple_inhib","apple_pos","inhibition","control","distractor","target","R","apple_pos","Y","11/11/2015","11:07",784
"578","111115_1",1,5,5,"apple_pos","apple_pos","apple_inhib","inhibition","control","target","distractor","L","apple_pos","Y","11/11/2015","11:07",614
"579","111115_1",1,5,6,"apple_inhib","apple_inhib","apple_pos","inhibition","inhib","target","distractor","L","apple_inhib","Y","11/11/2015","11:07",1203
"580","111115_1",1,5,7,"car_pos","car_pos","car_inhib","inhibition","control","target","distractor","L","car_pos","Y","11/11/2015","11:07",1109
"581","111115_1",1,5,8,"car_pos","car_pos","car_inhib","inhibition","control","target","distractor","L","car_pos","Y","11/11/2015","11:07",808
"582","111115_1",1,5,9,"car_pos","car_inhib","car_pos","inhibition","control","distractor","target","R","car_pos","Y","11/11/2015","11:07",645
"583","111115_1",1,5,10,"car_pos","car_pos","car_inhib","inhibition","control","target","distractor","L","car_pos","Y","11/11/2015","11:07",609
"584","111115_1",1,5,11,"car_pos","car_pos","car_inhib","inhibition","control","target","distractor","L","car_pos","Y","11/11/2015","11:07",697
"585","111115_1",1,5,12,"car_inhib","car_inhib","car_pos","inhibition","inhib","target","distractor","R","car_pos","N","11/11/2015","11:07",630
"586","111115_1",1,5,13,"dog_pos","dog_pos","dog_inhib","inhibition","control","target","distractor","L","dog_pos","Y","11/11/2015","11:07",2741
"587","111115_1",1,5,14,"dog_pos","dog_inhib","dog_pos","inhibition","control","distractor","target","R","dog_pos","Y","11/11/2015","11:07",913
"588","111115_1",1,5,15,"dog_pos","dog_inhib","dog_pos","inhibition","control","distractor","target","R","dog_pos","Y","11/11/2015","11:07",865
"589","111115_1",1,5,16,"dog_pos","dog_pos","dog_inhib","inhibition","control","target","distractor","L","dog_pos","Y","11/11/2015","11:07",1168
"590","111115_1",1,5,17,"dog_pos","dog_pos","dog_inhib","inhibition","control","target","distractor","L","dog_pos","Y","11/11/2015","11:07",995
"591","111115_1",1,5,18,"dog_pos","dog_pos","dog_inhib","inhibition","control","target","distractor","L","dog_pos","Y","11/11/2015","11:07",951
"592","111115_1",1,5,19,"dog_inhib","dog_pos","dog_inhib","inhibition","inhib","distractor","target","R","dog_inhib","Y","11/11/2015","11:07",789
"593","111115_1",1,5,20,"teddybear_pos","teddybear_inhib","teddybear_pos","inhibition","control","distractor","target","R","teddybear_pos","Y","11/11/2015","11:07",1598
"594","111115_1",1,5,21,"teddybear_pos","teddybear_inhib","teddybear_pos","inhibition","control","distractor","target","R","teddybear_pos","Y","11/11/2015","11:07",856
"595","111115_1",1,5,22,"teddybear_pos","teddybear_pos","teddybear_inhib","inhibition","control","target","distractor","L","teddybear_pos","Y","11/11/2015","11:07",839
"596","111115_1",1,5,23,"teddybear_pos","teddybear_inhib","teddybear_pos","inhibition","control","distractor","target","R","teddybear_pos","Y","11/11/2015","11:07",832
"597","111115_1",1,5,24,"teddybear_pos","teddybear_inhib","teddybear_pos","inhibition","control","distractor","target","R","teddybear_pos","Y","11/11/2015","11:07",794
"598","111115_1",1,5,25,"teddybear_inhib","teddybear_pos","teddybear_inhib","inhibition","inhib","distractor","target","R","teddybear_inhib","Y","11/11/2015","11:07",974
"599","111115_1",1,5,26,"banana_pos","banana_inhib","banana_pos","inhibition","control","distractor","target","R","banana_pos","Y","11/11/2015","11:07",952
"600","111115_1",1,5,27,"banana_pos","banana_inhib","banana_pos","inhibition","control","distractor","target","R","banana_pos","Y","11/11/2015","11:07",694
"601","111115_1",1,5,28,"banana_pos","banana_inhib","banana_pos","inhibition","control","distractor","target","R","banana_pos","Y","11/11/2015","11:07",669
"602","111115_1",1,5,29,"banana_pos","banana_inhib","banana_pos","inhibition","control","distractor","target","R","banana_pos","Y","11/11/2015","11:07",714
"603","111115_1",1,5,30,"banana_pos","banana_pos","banana_inhib","inhibition","control","target","distractor","L","banana_pos","Y","11/11/2015","11:07",874
"604","111115_1",1,5,31,"banana_inhib","banana_inhib","banana_pos","inhibition","inhib","target","distractor","R","banana_pos","N","11/11/2015","11:07",827
"605","111115_1",1,5,32,"bicycle_pos","bicycle_inhib","bicycle_pos","inhibition","control","distractor","target","R","bicycle_pos","Y","11/11/2015","11:07",2232
"606","111115_1",1,5,33,"bicycle_pos","bicycle_pos","bicycle_inhib","inhibition","control","target","distractor","L","bicycle_pos","Y","11/11/2015","11:07",955
"607","111115_1",1,5,34,"bicycle_pos","bicycle_pos","bicycle_inhib","inhibition","control","target","distractor","L","bicycle_pos","Y","11/11/2015","11:07",1224
"608","111115_1",1,5,35,"bicycle_pos","bicycle_inhib","bicycle_pos","inhibition","control","distractor","target","R","bicycle_pos","Y","11/11/2015","11:07",690
"609","111115_1",1,5,36,"bicycle_pos","bicycle_pos","bicycle_inhib","inhibition","control","target","distractor","L","bicycle_pos","Y","11/11/2015","11:07",617
"610","111115_1",1,5,37,"bicycle_inhib","bicycle_inhib","bicycle_pos","inhibition","inhib","target","distractor","L","bicycle_inhib","Y","11/11/2015","11:07",1080
"611","111115_1",1,5,38,"cat_pos","cat_inhib","cat_pos","inhibition","control","distractor","target","R","cat_pos","Y","11/11/2015","11:07",743
"612","111115_1",1,5,39,"cat_pos","cat_inhib","cat_pos","inhibition","control","distractor","target","R","cat_pos","Y","11/11/2015","11:07",739
"613","111115_1",1,5,40,"cat_pos","cat_pos","cat_inhib","inhibition","control","target","distractor","L","cat_pos","Y","11/11/2015","11:07",776
"614","111115_1",1,5,41,"cat_pos","cat_inhib","cat_pos","inhibition","control","distractor","target","R","cat_pos","Y","11/11/2015","11:07",686
"615","111115_1",1,5,42,"cat_pos","cat_inhib","cat_pos","inhibition","control","distractor","target","R","cat_pos","Y","11/11/2015","11:07",695
"616","111115_1",1,5,43,"cat_pos","cat_inhib","cat_pos","inhibition","control","distractor","target","R","cat_pos","Y","11/11/2015","11:07",579
"617","111115_1",1,5,44,"cat_inhib","cat_pos","cat_inhib","inhibition","inhib","distractor","target","R","cat_inhib","Y","11/11/2015","11:07",1022
"618","111115_1",1,5,45,"flower_pos","flower_inhib","flower_pos","inhibition","control","distractor","target","R","flower_pos","Y","11/11/2015","11:07",1221
"619","111115_1",1,5,46,"flower_pos","flower_inhib","flower_pos","inhibition","control","distractor","target","R","flower_pos","Y","11/11/2015","11:07",536
"620","111115_1",1,5,47,"flower_pos","flower_inhib","flower_pos","inhibition","control","distractor","target","R","flower_pos","Y","11/11/2015","11:07",370
"621","111115_1",1,5,48,"flower_pos","flower_inhib","flower_pos","inhibition","control","distractor","target","R","flower_pos","Y","11/11/2015","11:07",468
"622","111115_1",1,5,49,"flower_pos","flower_pos","flower_inhib","inhibition","control","target","distractor","L","flower_pos","Y","11/11/2015","11:07",666
"623","111115_1",1,5,50,"flower_pos","flower_inhib","flower_pos","inhibition","control","distractor","target","R","flower_pos","Y","11/11/2015","11:07",646
"624","111115_1",1,5,51,"flower_inhib","flower_inhib","flower_pos","inhibition","inhib","target","distractor","L","flower_inhib","Y","11/11/2015","11:07",1140
"625","111115_1",1,5,52,"cookie_pos","cookie_inhib","cookie_pos","inhibition","control","distractor","target","R","cookie_pos","Y","11/11/2015","11:07",1091
"626","111115_1",1,5,53,"cookie_pos","cookie_pos","cookie_inhib","inhibition","control","target","distractor","L","cookie_pos","Y","11/11/2015","11:07",923
"627","111115_1",1,5,54,"cookie_pos","cookie_pos","cookie_inhib","inhibition","control","target","distractor","L","cookie_pos","Y","11/11/2015","11:07",739
"628","111115_1",1,5,55,"cookie_pos","cookie_pos","cookie_inhib","inhibition","control","target","distractor","L","cookie_pos","Y","11/11/2015","11:07",643
"629","111115_1",1,5,56,"cookie_pos","cookie_inhib","cookie_pos","inhibition","control","distractor","target","R","cookie_pos","Y","11/11/2015","11:07",781
"630","111115_1",1,5,57,"cookie_pos","cookie_pos","cookie_inhib","inhibition","control","target","distractor","L","cookie_pos","Y","11/11/2015","11:07",612
"631","111115_1",1,5,58,"cookie_inhib","cookie_inhib","cookie_pos","inhibition","inhib","target","distractor","R","cookie_pos","N","11/11/2015","11:07",641
"632","111115_1",1,5,59,"lamp_pos","lamp_inhib","lamp_pos","inhibition","control","distractor","target","R","lamp_pos","Y","11/11/2015","11:07",2948
"633","111115_1",1,5,60,"lamp_pos","lamp_pos","lamp_inhib","inhibition","control","target","distractor","L","lamp_pos","Y","11/11/2015","11:07",717
"634","111115_1",1,5,61,"lamp_pos","lamp_inhib","lamp_pos","inhibition","control","distractor","target","R","lamp_pos","Y","11/11/2015","11:07",514
"635","111115_1",1,5,62,"lamp_pos","lamp_inhib","lamp_pos","inhibition","control","distractor","target","R","lamp_pos","Y","11/11/2015","11:07",828
"636","111115_1",1,5,63,"lamp_pos","lamp_inhib","lamp_pos","inhibition","control","distractor","target","R","lamp_pos","Y","11/11/2015","11:07",550
"637","111115_1",1,5,64,"lamp_inhib","lamp_inhib","lamp_pos","inhibition","inhib","target","distractor","L","lamp_inhib","Y","11/11/2015","11:07",1491
"638","111115_1",1,5,65,"bird_pos","bird_inhib","bird_pos","inhibition","control","distractor","target","R","bird_pos","Y","11/11/2015","11:07",956
