"","subid","list","game.order","trial.num","word","leftpic","rightpic","game","trial.type","leftpic.type","rightpic.type","side.chosen","pic.chosen","response","date","timestamp","rt","gender","age","language"
"1","A11C9D55C41PB2",1,2,40,"car_implic","car_control","car_implic","negimp","implicature","distractor","target","R","car_implic","Y","8/10/2015","17:39",1120,"M","35","English"
"2","A11C9D55C41PB2",1,2,38,"flower_implic","flower_implic","flower_control","negimp","implicature","target","distractor","L","flower_implic","Y","8/10/2015","17:39",905,"M","35","English"
"3","A11C9D55C41PB2",1,2,44,"bird_neg","bird_neg","bird_pos","negimp","negative","target","distractor","L","bird_neg","Y","8/10/2015","17:39",877,"M","35","English"
"4","A11C9D55C41PB2",1,2,42,"cup_pos","cup_neg","cup_pos","negimp","positive","distractor","target","R","cup_pos","Y","8/10/2015","17:39",798,"M","35","English"
"5","A11C9D55C41PB2",1,2,43,"bicycle_pos","bicycle_pos","bicycle_neg","negimp","positive","target","distractor","L","bicycle_pos","Y","8/10/2015","17:39",1187,"M","35","English"
"6","A11C9D55C41PB2",1,2,35,"flower_pos","flower_neg","flower_pos","negimp","positive","distractor","target","R","flower_pos","Y","8/10/2015","17:39",828,"M","35","English"
"7","A11C9D55C41PB2",1,2,36,"lamp_control","lamp_control","lamp_foil","negimp","unambiguous","target","distractor","L","lamp_control","Y","8/10/2015","17:39",904,"M","35","English"
"8","A11C9D55C41PB2",1,2,37,"teddybear_neg","teddybear_neg","teddybear_pos","negimp","negative","target","distractor","L","teddybear_neg","Y","8/10/2015","17:39",940.999999999998,"M","35","English"
"9","A11C9D55C41PB2",1,2,39,"cat_implic","cat_implic","cat_control","negimp","implicature","target","distractor","L","cat_implic","Y","8/10/2015","17:39",735,"M","35","English"
"10","A11C9D55C41PB2",1,2,12,"banana_pos","banana_neg","banana_pos","negimp","positive","distractor","target","R","banana_pos","Y","8/10/2015","17:39",1269,"M","35","English"
"11","A11C9D55C41PB2",1,2,13,"flower_pos","flower_neg","flower_pos","negimp","positive","distractor","target","R","flower_pos","Y","8/10/2015","17:39",917,"M","35","English"
"12","A11C9D55C41PB2",1,2,14,"bicycle_control","bicycle_control","bicycle_foil","negimp","unambiguous","target","distractor","L","bicycle_control","Y","8/10/2015","17:39",941,"M","35","English"
"13","A11C9D55C41PB2",1,2,15,"cookie_neg","cookie_pos","cookie_neg","negimp","negative","distractor","target","R","cookie_neg","Y","8/10/2015","17:39",966,"M","35","English"
"14","A11C9D55C41PB2",1,2,16,"cat_control","cat_control","cat_foil","negimp","unambiguous","target","distractor","L","cat_control","Y","8/10/2015","17:39",1121,"M","35","English"
"15","A11C9D55C41PB2",1,2,17,"lamp_neg","lamp_pos","lamp_neg","negimp","negative","distractor","target","R","lamp_neg","Y","8/10/2015","17:39",1203,"M","35","English"
"16","A11C9D55C41PB2",1,2,18,"apple_control","apple_control","apple_foil","negimp","unambiguous","target","distractor","L","apple_control","Y","8/10/2015","17:39",891,"M","35","English"
"17","A11C9D55C41PB2",1,2,19,"bird_control","bird_foil","bird_control","negimp","unambiguous","distractor","target","R","bird_control","Y","8/10/2015","17:39",827,"M","35","English"
"18","A11C9D55C41PB2",1,2,20,"cup_neg","cup_pos","cup_neg","negimp","negative","distractor","target","R","cup_neg","Y","8/10/2015","17:39",734.000000000001,"M","35","English"
"19","A11C9D55C41PB2",1,2,21,"teddybear_implic","teddybear_implic","teddybear_control","negimp","implicature","target","distractor","L","teddybear_implic","Y","8/10/2015","17:39",1061,"M","35","English"
"20","A11C9D55C41PB2",1,2,22,"dog_implic","dog_implic","dog_control","negimp","implicature","target","distractor","L","dog_implic","Y","8/10/2015","17:39",798,"M","35","English"
"21","A11C9D55C41PB2",1,2,23,"banana_implic","banana_implic","banana_control","negimp","implicature","target","distractor","L","banana_implic","Y","8/10/2015","17:39",820,"M","35","English"
"22","A11C9D55C41PB2",1,2,24,"car_control","car_foil","car_control","negimp","unambiguous","distractor","target","R","car_control","Y","8/10/2015","17:39",782,"M","35","English"
"23","A11C9D55C41PB2",1,2,25,"car_pos","car_neg","car_pos","negimp","positive","distractor","target","R","car_pos","Y","8/10/2015","17:39",751,"M","35","English"
"24","A11C9D55C41PB2",1,2,26,"banana_neg","banana_neg","banana_pos","negimp","negative","target","distractor","L","banana_neg","Y","8/10/2015","17:39",880.000000000001,"M","35","English"
"25","A11C9D55C41PB2",1,2,27,"cat_implic","cat_control","cat_implic","negimp","implicature","distractor","target","R","cat_implic","Y","8/10/2015","17:39",836,"M","35","English"
"26","A11C9D55C41PB2",1,2,28,"bird_pos","bird_neg","bird_pos","negimp","positive","distractor","target","R","bird_pos","Y","8/10/2015","17:39",765,"M","35","English"
"27","A11C9D55C41PB2",1,2,29,"teddybear_pos","teddybear_pos","teddybear_neg","negimp","positive","target","distractor","L","teddybear_pos","Y","8/10/2015","17:39",893,"M","35","English"
"28","A11C9D55C41PB2",1,2,30,"cookie_pos","cookie_neg","cookie_pos","negimp","positive","distractor","target","R","cookie_pos","Y","8/10/2015","17:39",971,"M","35","English"
"29","A11C9D55C41PB2",1,2,31,"apple_control","apple_foil","apple_control","negimp","unambiguous","distractor","target","R","apple_control","Y","8/10/2015","17:39",785,"M","35","English"
"30","A11C9D55C41PB2",1,2,32,"cup_neg","cup_neg","cup_pos","negimp","negative","target","distractor","L","cup_neg","Y","8/10/2015","17:39",812.000000000001,"M","35","English"
"31","A11C9D55C41PB2",1,2,33,"dog_control","dog_foil","dog_control","negimp","unambiguous","distractor","target","R","dog_control","Y","8/10/2015","17:39",856,"M","35","English"
"32","A11C9D55C41PB2",1,2,34,"bicycle_neg","bicycle_neg","bicycle_pos","negimp","negative","target","distractor","L","bicycle_neg","Y","8/10/2015","17:39",784.000000000001,"M","35","English"
"33","A11C9D55C41PB2",1,2,75,"cat_control","cat_foil","cat_control","negimp","unambiguous","distractor","target","R","cat_control","Y","8/10/2015","17:39",688,"M","35","English"
"34","A11C9D55C41PB2",1,2,76,"flower_control","flower_foil","flower_control","negimp","unambiguous","distractor","target","R","flower_control","Y","8/10/2015","17:39",910,"M","35","English"
"35","A11C9D55C41PB2",1,2,77,"car_control","car_foil","car_control","negimp","unambiguous","distractor","target","R","car_control","Y","8/10/2015","17:39",835,"M","35","English"
"36","A11C9D55C41PB2",1,2,78,"cup_implic","cup_control","cup_implic","negimp","implicature","distractor","target","L","cup_control","N","8/10/2015","17:39",784,"M","35","English"
"37","A11C9D55C41PB2",1,2,79,"banana_pos","banana_pos","banana_neg","negimp","positive","target","distractor","L","banana_pos","Y","8/10/2015","17:39",723,"M","35","English"
"38","A11C9D55C41PB2",1,2,80,"teddybear_implic","teddybear_control","teddybear_implic","negimp","implicature","distractor","target","R","teddybear_implic","Y","8/10/2015","17:39",690,"M","35","English"
"39","A11C9D55C41PB2",1,2,41,"lamp_control","lamp_foil","lamp_control","negimp","unambiguous","distractor","target","R","lamp_control","Y","8/10/2015","17:39",725,"M","35","English"
"40","A11C9D55C41PB2",1,2,82,"bird_neg","bird_pos","bird_neg","negimp","negative","distractor","target","R","bird_neg","Y","8/10/2015","17:39",2738,"M","35","English"
"41","A11C9D55C41PB2",1,2,83,"dog_neg","dog_pos","dog_neg","negimp","negative","distractor","target","R","dog_neg","Y","8/10/2015","17:39",1739,"M","35","English"
"42","A11C9D55C41PB2",1,2,84,"apple_control","apple_control","apple_foil","negimp","unambiguous","target","distractor","L","apple_control","Y","8/10/2015","17:39",721,"M","35","English"
"43","A11C9D55C41PB2",1,2,85,"teddybear_implic","teddybear_implic","teddybear_control","negimp","implicature","target","distractor","L","teddybear_implic","Y","8/10/2015","17:39",1048,"M","35","English"
"44","A11C9D55C41PB2",1,2,86,"flower_neg","flower_pos","flower_neg","negimp","negative","distractor","target","R","flower_neg","Y","8/10/2015","17:39",929,"M","35","English"
"45","A11C9D55C41PB2",1,2,87,"apple_pos","apple_neg","apple_pos","negimp","positive","distractor","target","R","apple_pos","Y","8/10/2015","17:39",748,"M","35","English"
"46","A11C9D55C41PB2",1,2,88,"bicycle_neg","bicycle_neg","bicycle_pos","negimp","negative","target","distractor","L","bicycle_neg","Y","8/10/2015","17:39",752.000000000001,"M","35","English"
"47","A11C9D55C41PB2",1,2,89,"car_pos","car_neg","car_pos","negimp","positive","distractor","target","R","car_pos","Y","8/10/2015","17:39",880,"M","35","English"
"48","A11C9D55C41PB2",1,2,90,"cat_control","cat_control","cat_foil","negimp","unambiguous","target","distractor","L","cat_control","Y","8/10/2015","17:39",1101,"M","35","English"
"49","A11C9D55C41PB2",1,2,91,"lamp_implic","lamp_implic","lamp_control","negimp","implicature","target","distractor","L","lamp_implic","Y","8/10/2015","17:39",1490,"M","35","English"
"50","A11C9D55C41PB2",1,2,92,"cookie_neg","cookie_neg","cookie_pos","negimp","negative","target","distractor","L","cookie_neg","Y","8/10/2015","17:39",695,"M","35","English"
"51","A11C9D55C41PB2",1,2,93,"banana_implic","banana_control","banana_implic","negimp","implicature","distractor","target","R","banana_implic","Y","8/10/2015","17:39",3093,"M","35","English"
"52","A11C9D55C41PB2",1,2,94,"cup_implic","cup_implic","cup_control","negimp","implicature","target","distractor","L","cup_implic","Y","8/10/2015","17:39",1007,"M","35","English"
"53","A11C9D55C41PB2",1,2,95,"bird_control","bird_control","bird_foil","negimp","unambiguous","target","distractor","L","bird_control","Y","8/10/2015","17:39",1485,"M","35","English"
"54","A11C9D55C41PB2",1,2,96,"dog_pos","dog_neg","dog_pos","negimp","positive","distractor","target","R","dog_pos","Y","8/10/2015","17:39",1595,"M","35","English"
"55","A11C9D55C41PB2",1,2,97,"car_neg","car_neg","car_pos","negimp","negative","target","distractor","L","car_neg","Y","8/10/2015","17:39",2130,"M","35","English"
"56","A11C9D55C41PB2",1,2,98,"teddybear_control","teddybear_foil","teddybear_control","negimp","unambiguous","distractor","target","R","teddybear_control","Y","8/10/2015","17:39",1812,"M","35","English"
"57","A11C9D55C41PB2",1,2,99,"cup_neg","cup_neg","cup_pos","negimp","negative","target","distractor","L","cup_neg","Y","8/10/2015","17:39",2188,"M","35","English"
"58","A11C9D55C41PB2",1,2,100,"apple_pos","apple_neg","apple_pos","negimp","positive","distractor","target","R","apple_pos","Y","8/10/2015","17:39",708,"M","35","English"
"59","A11C9D55C41PB2",1,2,101,"bicycle_control","bicycle_control","bicycle_foil","negimp","unambiguous","target","distractor","L","bicycle_control","Y","8/10/2015","17:39",2407,"M","35","English"
"60","A11C9D55C41PB2",1,2,102,"cookie_neg","cookie_neg","cookie_pos","negimp","negative","target","distractor","L","cookie_neg","Y","8/10/2015","17:39",1182,"M","35","English"
"61","A11C9D55C41PB2",1,2,103,"cat_pos","cat_neg","cat_pos","negimp","positive","distractor","target","R","cat_pos","Y","8/10/2015","17:39",1096,"M","35","English"
"62","A11C9D55C41PB2",1,2,104,"lamp_implic","lamp_implic","lamp_control","negimp","implicature","target","distractor","L","lamp_implic","Y","8/10/2015","17:39",823,"M","35","English"
"63","A11C9D55C41PB2",1,2,105,"bird_control","bird_foil","bird_control","negimp","unambiguous","distractor","target","R","bird_control","Y","8/10/2015","17:39",807,"M","35","English"
"64","A11C9D55C41PB2",1,2,106,"flower_pos","flower_pos","flower_neg","negimp","positive","target","distractor","L","flower_pos","Y","8/10/2015","17:39",833,"M","35","English"
"65","A11C9D55C41PB2",1,2,107,"dog_implic","dog_control","dog_implic","negimp","implicature","distractor","target","R","dog_implic","Y","8/10/2015","17:39",1463,"M","35","English"
"66","A11C9D55C41PB2",1,2,108,"banana_pos","banana_neg","banana_pos","negimp","positive","distractor","target","R","banana_pos","Y","8/10/2015","17:39",1016,"M","35","English"
"67","A11C9D55C41PB2",1,2,109,"cup_implic","cup_control","cup_implic","negimp","implicature","distractor","target","R","cup_implic","Y","8/10/2015","17:39",770,"M","35","English"
"68","A11C9D55C41PB2",1,2,110,"cat_control","cat_foil","cat_control","negimp","unambiguous","distractor","target","R","cat_control","Y","8/10/2015","17:39",705,"M","35","English"
"69","A11C9D55C41PB2",1,2,111,"banana_control","banana_control","banana_foil","negimp","unambiguous","target","distractor","L","banana_control","Y","8/10/2015","17:39",913,"M","35","English"
"70","A11C9D55C41PB2",1,2,112,"cookie_pos","cookie_pos","cookie_neg","negimp","positive","target","distractor","L","cookie_pos","Y","8/10/2015","17:39",1490,"M","35","English"
"71","A11C9D55C41PB2",1,2,113,"bicycle_pos","bicycle_pos","bicycle_neg","negimp","positive","target","distractor","L","bicycle_pos","Y","8/10/2015","17:39",676,"M","35","English"
"72","A11C9D55C41PB2",1,2,114,"lamp_implic","lamp_control","lamp_implic","negimp","implicature","distractor","target","R","lamp_implic","Y","8/10/2015","17:39",672,"M","35","English"
"73","A11C9D55C41PB2",1,2,115,"apple_neg","apple_neg","apple_pos","negimp","negative","target","distractor","L","apple_neg","Y","8/10/2015","17:39",1492,"M","35","English"
"74","A11C9D55C41PB2",1,2,116,"dog_control","dog_foil","dog_control","negimp","unambiguous","distractor","target","R","dog_control","Y","8/10/2015","17:39",1107,"M","35","English"
"75","A11C9D55C41PB2",1,2,117,"car_control","car_control","car_foil","negimp","unambiguous","target","distractor","L","car_control","Y","8/10/2015","17:39",1801,"M","35","English"
"76","A11C9D55C41PB2",1,2,118,"flower_pos","flower_pos","flower_neg","negimp","positive","target","distractor","L","flower_pos","Y","8/10/2015","17:39",2219,"M","35","English"
"77","A11C9D55C41PB2",1,2,119,"teddybear_neg","teddybear_pos","teddybear_neg","negimp","negative","distractor","target","R","teddybear_neg","Y","8/10/2015","17:39",860.999999999998,"M","35","English"
"78","A11C9D55C41PB2",1,2,120,"bird_implic","bird_control","bird_implic","negimp","implicature","distractor","target","R","bird_implic","Y","8/10/2015","17:39",1567,"M","35","English"
"79","A11C9D55C41PB2",1,2,81,"cookie_pos","cookie_neg","cookie_pos","negimp","positive","distractor","target","R","cookie_pos","Y","8/10/2015","17:39",1001,"M","35","English"
"80","A11C9D55C41PB2",1,2,1,"dog_neg","dog_neg","dog_pos","negimp","negative","target","distractor","R","dog_pos","N","8/10/2015","17:39",1698,"M","35","English"
"81","A11C9D55C41PB2",1,2,2,"cat_neg","cat_pos","cat_neg","negimp","negative","distractor","target","L","cat_pos","N","8/10/2015","17:39",851.000000000001,"M","35","English"
"82","A11C9D55C41PB2",1,2,3,"teddybear_control","teddybear_control","teddybear_foil","negimp","unambiguous","target","distractor","L","teddybear_control","Y","8/10/2015","17:39",978,"M","35","English"
"83","A11C9D55C41PB2",1,2,4,"cookie_implic","cookie_control","cookie_implic","negimp","implicature","distractor","target","R","cookie_implic","Y","8/10/2015","17:39",991,"M","35","English"
"84","A11C9D55C41PB2",1,2,5,"car_control","car_control","car_foil","negimp","unambiguous","target","distractor","L","car_control","Y","8/10/2015","17:39",985,"M","35","English"
"85","A11C9D55C41PB2",1,2,6,"cup_implic","cup_implic","cup_control","negimp","implicature","target","distractor","L","cup_implic","Y","8/10/2015","17:39",932,"M","35","English"
"86","A11C9D55C41PB2",1,2,7,"bicycle_pos","bicycle_neg","bicycle_pos","negimp","positive","distractor","target","R","bicycle_pos","Y","8/10/2015","17:39",771,"M","35","English"
"87","A11C9D55C41PB2",1,2,8,"lamp_neg","lamp_neg","lamp_pos","negimp","negative","target","distractor","L","lamp_neg","Y","8/10/2015","17:39",1320,"M","35","English"
"88","A11C9D55C41PB2",1,2,9,"apple_neg","apple_neg","apple_pos","negimp","negative","target","distractor","L","apple_neg","Y","8/10/2015","17:39",983.999999999998,"M","35","English"
"89","A11C9D55C41PB2",1,2,10,"bird_control","bird_foil","bird_control","negimp","unambiguous","distractor","target","R","bird_control","Y","8/10/2015","17:39",1193,"M","35","English"
"90","A11C9D55C41PB2",1,2,11,"flower_control","flower_control","flower_foil","negimp","unambiguous","target","distractor","L","flower_control","Y","8/10/2015","17:39",1105,"M","35","English"
"91","A11C9D55C41PB2",1,2,133,"bicycle_implic","bicycle_control","bicycle_implic","negimp","implicature","distractor","target","R","bicycle_implic","Y","8/10/2015","17:39",716,"M","35","English"
"92","A11C9D55C41PB2",1,2,134,"dog_implic","dog_implic","dog_control","negimp","implicature","target","distractor","L","dog_implic","Y","8/10/2015","17:39",651,"M","35","English"
"93","A11C9D55C41PB2",1,2,135,"flower_pos","flower_pos","flower_neg","negimp","positive","target","distractor","L","flower_pos","Y","8/10/2015","17:39",656,"M","35","English"
"94","A11C9D55C41PB2",1,2,136,"bird_neg","bird_pos","bird_neg","negimp","negative","distractor","target","R","bird_neg","Y","8/10/2015","17:39",751,"M","35","English"
"95","A11C9D55C41PB2",1,2,137,"cat_control","cat_foil","cat_control","negimp","unambiguous","distractor","target","R","cat_control","Y","8/10/2015","17:39",757,"M","35","English"
"96","A11C9D55C41PB2",1,2,138,"cookie_implic","cookie_control","cookie_implic","negimp","implicature","distractor","target","R","cookie_implic","Y","8/10/2015","17:39",723,"M","35","English"
"97","A11C9D55C41PB2",1,2,139,"apple_neg","apple_pos","apple_neg","negimp","negative","distractor","target","R","apple_neg","Y","8/10/2015","17:39",684.999999999998,"M","35","English"
"98","A11C9D55C41PB2",1,2,140,"lamp_implic","lamp_implic","lamp_control","negimp","implicature","target","distractor","L","lamp_implic","Y","8/10/2015","17:39",1218,"M","35","English"
"99","A11C9D55C41PB2",1,2,141,"banana_neg","banana_neg","banana_pos","negimp","negative","target","distractor","L","banana_neg","Y","8/10/2015","17:39",814.000000000001,"M","35","English"
"100","A11C9D55C41PB2",1,2,142,"car_pos","car_pos","car_neg","negimp","positive","target","distractor","L","car_pos","Y","8/10/2015","17:39",684,"M","35","English"
"101","A11C9D55C41PB2",1,2,143,"cup_control","cup_foil","cup_control","negimp","unambiguous","distractor","target","R","cup_control","Y","8/10/2015","17:39",1164,"M","35","English"
"102","A11C9D55C41PB2",1,2,144,"teddybear_implic","teddybear_implic","teddybear_control","negimp","implicature","target","distractor","L","teddybear_implic","Y","8/10/2015","17:39",825,"M","35","English"
"103","A11C9D55C41PB2",1,2,145,"bird_neg","bird_pos","bird_neg","negimp","negative","distractor","target","R","bird_neg","Y","8/10/2015","17:39",697,"M","35","English"
"104","A11C9D55C41PB2",1,2,146,"banana_pos","banana_pos","banana_neg","negimp","positive","target","distractor","L","banana_pos","Y","8/10/2015","17:39",1131,"M","35","English"
"105","A11C9D55C41PB2",1,2,147,"apple_pos","apple_neg","apple_pos","negimp","positive","distractor","target","R","apple_pos","Y","8/10/2015","17:39",1195,"M","35","English"
"106","A11C9D55C41PB2",1,2,148,"cat_neg","cat_neg","cat_pos","negimp","negative","target","distractor","R","cat_pos","N","8/10/2015","17:39",998.000000000001,"M","35","English"
"107","A11C9D55C41PB2",1,2,149,"flower_implic","flower_control","flower_implic","negimp","implicature","distractor","target","R","flower_implic","Y","8/10/2015","17:39",1089,"M","35","English"
"108","A11C9D55C41PB2",1,2,150,"teddybear_pos","teddybear_neg","teddybear_pos","negimp","positive","distractor","target","R","teddybear_pos","Y","8/10/2015","17:39",977,"M","35","English"
"109","A11C9D55C41PB2",1,2,151,"bicycle_neg","bicycle_pos","bicycle_neg","negimp","negative","distractor","target","R","bicycle_neg","Y","8/10/2015","17:39",949.000000000001,"M","35","English"
"110","A11C9D55C41PB2",1,2,152,"cup_neg","cup_pos","cup_neg","negimp","negative","distractor","target","R","cup_neg","Y","8/10/2015","17:39",899.000000000001,"M","35","English"
"111","A11C9D55C41PB2",1,2,153,"car_control","car_foil","car_control","negimp","unambiguous","distractor","target","R","car_control","Y","8/10/2015","17:39",1260,"M","35","English"
"112","A11C9D55C41PB2",1,2,154,"cookie_pos","cookie_neg","cookie_pos","negimp","positive","distractor","target","R","cookie_pos","Y","8/10/2015","17:39",1256,"M","35","English"
"113","A11C9D55C41PB2",1,2,155,"lamp_neg","lamp_pos","lamp_neg","negimp","negative","distractor","target","R","lamp_neg","Y","8/10/2015","17:39",716.999999999997,"M","35","English"
"114","A11C9D55C41PB2",1,2,156,"dog_implic","dog_implic","dog_control","negimp","implicature","target","distractor","L","dog_implic","Y","8/10/2015","17:39",817,"M","35","English"
"115","A11C9D55C41PB2",1,2,157,"cookie_pos","cookie_neg","cookie_pos","negimp","positive","distractor","target","R","cookie_pos","Y","8/10/2015","17:39",953,"M","35","English"
"116","A11C9D55C41PB2",1,2,158,"bird_control","bird_foil","bird_control","negimp","unambiguous","distractor","target","R","bird_control","Y","8/10/2015","17:39",1095,"M","35","English"
"117","A11C9D55C41PB2",1,2,159,"banana_control","banana_control","banana_foil","negimp","unambiguous","target","distractor","L","banana_control","Y","8/10/2015","17:39",826,"M","35","English"
"118","A11C9D55C41PB2",1,2,160,"lamp_neg","lamp_neg","lamp_pos","negimp","negative","target","distractor","L","lamp_neg","Y","8/10/2015","17:39",722.999999999997,"M","35","English"
"119","A11C9D55C41PB2",1,2,161,"car_neg","car_pos","car_neg","negimp","negative","distractor","target","R","car_neg","Y","8/10/2015","17:39",820,"M","35","English"
"120","A11C9D55C41PB2",1,2,162,"cat_control","cat_foil","cat_control","negimp","unambiguous","distractor","target","R","cat_control","Y","8/10/2015","17:39",734,"M","35","English"
"121","A11C9D55C41PB2",1,2,163,"flower_neg","flower_neg","flower_pos","negimp","negative","target","distractor","L","flower_neg","Y","8/10/2015","17:39",746,"M","35","English"
"122","A11C9D55C41PB2",1,2,164,"bicycle_pos","bicycle_pos","bicycle_neg","negimp","positive","target","distractor","L","bicycle_pos","Y","8/10/2015","17:39",679,"M","35","English"
"123","A11C9D55C41PB2",1,2,165,"teddybear_neg","teddybear_neg","teddybear_pos","negimp","negative","target","distractor","L","teddybear_neg","Y","8/10/2015","17:39",1094,"M","35","English"
"124","A11C9D55C41PB2",1,2,166,"cup_control","cup_control","cup_foil","negimp","unambiguous","target","distractor","L","cup_control","Y","8/10/2015","17:39",774,"M","35","English"
"125","A11C9D55C41PB2",1,2,167,"dog_control","dog_control","dog_foil","negimp","unambiguous","target","distractor","L","dog_control","Y","8/10/2015","17:39",716,"M","35","English"
"126","A11C9D55C41PB2",1,2,168,"apple_neg","apple_neg","apple_pos","negimp","negative","target","distractor","L","apple_neg","Y","8/10/2015","17:39",1103,"M","35","English"
"127","A11C9D55C41PB2",1,2,169,"lamp_implic","lamp_control","lamp_implic","negimp","implicature","distractor","target","R","lamp_implic","Y","8/10/2015","17:39",842,"M","35","English"
"128","A11C9D55C41PB2",1,2,170,"car_control","car_foil","car_control","negimp","unambiguous","distractor","target","R","car_control","Y","8/10/2015","17:39",808,"M","35","English"
"129","A11C9D55C41PB2",1,2,171,"flower_pos","flower_pos","flower_neg","negimp","positive","target","distractor","L","flower_pos","Y","8/10/2015","17:39",721,"M","35","English"
"130","A11C9D55C41PB2",1,2,172,"banana_pos","banana_pos","banana_neg","negimp","positive","target","distractor","L","banana_pos","Y","8/10/2015","17:39",664,"M","35","English"
"131","A11C9D55C41PB2",1,2,173,"cookie_neg","cookie_neg","cookie_pos","negimp","negative","target","distractor","L","cookie_neg","Y","8/10/2015","17:39",739,"M","35","English"
"132","A11C9D55C41PB2",1,2,174,"dog_control","dog_foil","dog_control","negimp","unambiguous","distractor","target","R","dog_control","Y","8/10/2015","17:39",719,"M","35","English"
"133","A11C9D55C41PB2",1,2,175,"apple_pos","apple_pos","apple_neg","negimp","positive","target","distractor","L","apple_pos","Y","8/10/2015","17:39",606,"M","35","English"
"134","A11C9D55C41PB2",1,2,176,"bird_neg","bird_neg","bird_pos","negimp","negative","target","distractor","L","bird_neg","Y","8/10/2015","17:39",749,"M","35","English"
"135","A11C9D55C41PB2",1,2,177,"teddybear_pos","teddybear_pos","teddybear_neg","negimp","positive","target","distractor","L","teddybear_pos","Y","8/10/2015","17:39",1084,"M","35","English"
"136","A11C9D55C41PB2",1,2,178,"cup_implic","cup_control","cup_implic","negimp","implicature","distractor","target","R","cup_implic","Y","8/10/2015","17:39",648,"M","35","English"
"137","A11C9D55C41PB2",1,2,179,"bicycle_control","bicycle_control","bicycle_foil","negimp","unambiguous","target","distractor","L","bicycle_control","Y","8/10/2015","17:39",730,"M","35","English"
"138","A11C9D55C41PB2",1,2,180,"cat_implic","cat_implic","cat_control","negimp","implicature","target","distractor","L","cat_implic","Y","8/10/2015","17:39",564,"M","35","English"
"139","A11C9D55C41PB2",1,2,181,"flower_implic","flower_control","flower_implic","negimp","implicature","distractor","target","R","flower_implic","Y","8/10/2015","17:39",874,"M","35","English"
"140","A11C9D55C41PB2",1,2,182,"dog_neg","dog_neg","dog_pos","negimp","negative","target","distractor","L","dog_neg","Y","8/10/2015","17:39",981,"M","35","English"
"141","A11C9D55C41PB2",1,2,183,"cat_implic","cat_implic","cat_control","negimp","implicature","target","distractor","L","cat_implic","Y","8/10/2015","17:39",786,"M","35","English"
"142","A11C9D55C41PB2",1,2,184,"apple_implic","apple_control","apple_implic","negimp","implicature","distractor","target","R","apple_implic","Y","8/10/2015","17:39",608,"M","35","English"
"143","A11C9D55C41PB2",1,2,185,"car_neg","car_pos","car_neg","negimp","negative","distractor","target","R","car_neg","Y","8/10/2015","17:39",624,"M","35","English"
"144","A11C9D55C41PB2",1,2,186,"teddybear_control","teddybear_foil","teddybear_control","negimp","unambiguous","distractor","target","R","teddybear_control","Y","8/10/2015","17:39",890,"M","35","English"
"145","A11C9D55C41PB2",1,2,187,"lamp_implic","lamp_control","lamp_implic","negimp","implicature","distractor","target","R","lamp_implic","Y","8/10/2015","17:39",928,"M","35","English"
"146","A11C9D55C41PB2",1,2,188,"cookie_implic","cookie_control","cookie_implic","negimp","implicature","distractor","target","R","cookie_implic","Y","8/10/2015","17:39",687,"M","35","English"
"147","A11C9D55C41PB2",1,2,189,"bird_implic","bird_control","bird_implic","negimp","implicature","distractor","target","R","bird_implic","Y","8/10/2015","17:39",671,"M","35","English"
"148","A11C9D55C41PB2",1,2,190,"banana_neg","banana_pos","banana_neg","negimp","negative","distractor","target","R","banana_neg","Y","8/10/2015","17:39",710.000000000001,"M","35","English"
"149","A11C9D55C41PB2",1,2,191,"cup_implic","cup_control","cup_implic","negimp","implicature","distractor","target","R","cup_implic","Y","8/10/2015","17:39",644,"M","35","English"
"150","A11C9D55C41PB2",1,2,192,"bicycle_neg","bicycle_pos","bicycle_neg","negimp","negative","distractor","target","R","bicycle_neg","Y","8/10/2015","17:39",799.000000000001,"M","35","English"
"151","A11C9D55C41PB2",1,2,193,"apple_control","apple_foil","apple_control","negimp","unambiguous","distractor","target","R","apple_control","Y","8/10/2015","17:39",997,"M","35","English"
"152","A11C9D55C41PB2",1,2,194,"flower_pos","flower_neg","flower_pos","negimp","positive","distractor","target","R","flower_pos","Y","8/10/2015","17:39",731,"M","35","English"
"153","A11C9D55C41PB2",1,2,195,"lamp_pos","lamp_neg","lamp_pos","negimp","positive","distractor","target","R","lamp_pos","Y","8/10/2015","17:39",742,"M","35","English"
"154","A11C9D55C41PB2",1,2,196,"banana_neg","banana_neg","banana_pos","negimp","negative","target","distractor","L","banana_neg","Y","8/10/2015","17:39",856.000000000001,"M","35","English"
"155","A11C9D55C41PB2",1,2,197,"cookie_implic","cookie_implic","cookie_control","negimp","implicature","target","distractor","L","cookie_implic","Y","8/10/2015","17:39",776,"M","35","English"
"156","A11C9D55C41PB2",1,2,198,"car_control","car_foil","car_control","negimp","unambiguous","distractor","target","R","car_control","Y","8/10/2015","17:39",749,"M","35","English"
"157","A11C9D55C41PB2",1,2,199,"cat_pos","cat_pos","cat_neg","negimp","positive","target","distractor","L","cat_pos","Y","8/10/2015","17:39",1007,"M","35","English"
"158","A11C9D55C41PB2",1,2,200,"bicycle_neg","bicycle_pos","bicycle_neg","negimp","negative","distractor","target","R","bicycle_neg","Y","8/10/2015","17:39",689.000000000001,"M","35","English"
"159","A11C9D55C41PB2",1,2,201,"dog_implic","dog_control","dog_implic","negimp","implicature","distractor","target","R","dog_implic","Y","8/10/2015","17:39",806,"M","35","English"
"160","A11C9D55C41PB2",1,2,202,"bird_pos","bird_pos","bird_neg","negimp","positive","target","distractor","L","bird_pos","Y","8/10/2015","17:39",639,"M","35","English"
"161","A11C9D55C41PB2",1,2,203,"cup_implic","cup_implic","cup_control","negimp","implicature","target","distractor","L","cup_implic","Y","8/10/2015","17:39",907,"M","35","English"
"162","A11C9D55C41PB2",1,2,204,"teddybear_neg","teddybear_pos","teddybear_neg","negimp","negative","distractor","target","R","teddybear_neg","Y","8/10/2015","17:39",1772,"M","35","English"
"163","A11C9D55C41PB2",1,2,205,"cup_pos","cup_neg","cup_pos","negimp","positive","distractor","target","R","cup_pos","Y","8/10/2015","17:39",834,"M","35","English"
"164","A11C9D55C41PB2",1,2,206,"lamp_pos","lamp_pos","lamp_neg","negimp","positive","target","distractor","L","lamp_pos","Y","8/10/2015","17:39",718,"M","35","English"
"165","A11C9D55C41PB2",1,2,207,"bicycle_implic","bicycle_implic","bicycle_control","negimp","implicature","target","distractor","L","bicycle_implic","Y","8/10/2015","17:39",576,"M","35","English"
"166","A11C9D55C41PB2",1,2,208,"teddybear_neg","teddybear_pos","teddybear_neg","negimp","negative","distractor","target","R","teddybear_neg","Y","8/10/2015","17:39",719.999999999998,"M","35","English"
"167","A11C9D55C41PB2",1,2,209,"bird_control","bird_control","bird_foil","negimp","unambiguous","target","distractor","L","bird_control","Y","8/10/2015","17:39",696,"M","35","English"
"168","A11C9D55C41PB2",1,2,210,"flower_implic","flower_control","flower_implic","negimp","implicature","distractor","target","R","flower_implic","Y","8/10/2015","17:39",719,"M","35","English"
"169","A11C9D55C41PB2",1,2,211,"dog_neg","dog_neg","dog_pos","negimp","negative","target","distractor","L","dog_neg","Y","8/10/2015","17:39",1271,"M","35","English"
"170","A11C9D55C41PB2",1,2,212,"cookie_pos","cookie_neg","cookie_pos","negimp","positive","distractor","target","R","cookie_pos","Y","8/10/2015","17:39",916,"M","35","English"
"171","A11C9D55C41PB2",1,2,213,"cat_neg","cat_pos","cat_neg","negimp","negative","distractor","target","R","cat_neg","Y","8/10/2015","17:39",806.000000000001,"M","35","English"
"172","A11C9D55C41PB2",1,2,214,"banana_control","banana_control","banana_foil","negimp","unambiguous","target","distractor","L","banana_control","Y","8/10/2015","17:39",838,"M","35","English"
"173","A11C9D55C41PB2",1,2,215,"apple_implic","apple_control","apple_implic","negimp","implicature","distractor","target","R","apple_implic","Y","8/10/2015","17:39",714,"M","35","English"
"174","A11C9D55C41PB2",1,2,216,"car_neg","car_pos","car_neg","negimp","negative","distractor","target","R","car_neg","Y","8/10/2015","17:39",751,"M","35","English"
"175","A11C9D55C41PB2",1,2,217,"banana_control","banana_foil","banana_control","negimp","unambiguous","distractor","target","R","banana_control","Y","8/10/2015","17:39",2198,"M","35","English"
"176","A11C9D55C41PB2",1,2,218,"apple_neg","apple_neg","apple_pos","negimp","negative","target","distractor","L","apple_neg","Y","8/10/2015","17:39",686.999999999998,"M","35","English"
"177","A11C9D55C41PB2",1,2,219,"lamp_pos","lamp_neg","lamp_pos","negimp","positive","distractor","target","R","lamp_pos","Y","8/10/2015","17:39",823,"M","35","English"
"178","A11C9D55C41PB2",1,2,220,"bicycle_implic","bicycle_control","bicycle_implic","negimp","implicature","distractor","target","R","bicycle_implic","Y","8/10/2015","17:39",716,"M","35","English"
"179","A11C9D55C41PB2",1,2,221,"dog_control","dog_foil","dog_control","negimp","unambiguous","distractor","target","R","dog_control","Y","8/10/2015","17:39",759,"M","35","English"
"180","A11C9D55C41PB2",1,2,222,"bird_pos","bird_pos","bird_neg","negimp","positive","target","distractor","L","bird_pos","Y","8/10/2015","17:39",741,"M","35","English"
"181","A11C9D55C41PB2",1,2,223,"teddybear_control","teddybear_control","teddybear_foil","negimp","unambiguous","target","distractor","L","teddybear_control","Y","8/10/2015","17:39",889,"M","35","English"
"182","A11C9D55C41PB2",1,2,224,"cookie_pos","cookie_neg","cookie_pos","negimp","positive","distractor","target","R","cookie_pos","Y","8/10/2015","17:39",719,"M","35","English"
"183","A11C9D55C41PB2",1,2,225,"flower_implic","flower_implic","flower_control","negimp","implicature","target","distractor","L","flower_implic","Y","8/10/2015","17:39",926,"M","35","English"
"184","A11C9D55C41PB2",1,2,226,"car_neg","car_neg","car_pos","negimp","negative","target","distractor","L","car_neg","Y","8/10/2015","17:39",1011,"M","35","English"
"185","A11C9D55C41PB2",1,2,227,"cup_implic","cup_control","cup_implic","negimp","implicature","distractor","target","R","cup_implic","Y","8/10/2015","17:39",1206,"M","35","English"
"186","A11C9D55C41PB2",1,2,228,"cat_implic","cat_implic","cat_control","negimp","implicature","target","distractor","L","cat_implic","Y","8/10/2015","17:39",728,"M","35","English"
"187","A11C9D55C41PB2",1,2,229,"bicycle_implic","bicycle_control","bicycle_implic","negimp","implicature","distractor","target","R","bicycle_implic","Y","8/10/2015","17:39",551,"M","35","English"
"188","A11C9D55C41PB2",1,2,230,"teddybear_control","teddybear_foil","teddybear_control","negimp","unambiguous","distractor","target","R","teddybear_control","Y","8/10/2015","17:39",778,"M","35","English"
"189","A11C9D55C41PB2",1,2,231,"cookie_control","cookie_control","cookie_foil","negimp","unambiguous","target","distractor","L","cookie_control","Y","8/10/2015","17:39",720,"M","35","English"
"190","A11C9D55C41PB2",1,2,232,"apple_pos","apple_pos","apple_neg","negimp","positive","target","distractor","L","apple_pos","Y","8/10/2015","17:39",624,"M","35","English"
"191","A11C9D55C41PB2",1,2,233,"cup_control","cup_control","cup_foil","negimp","unambiguous","target","distractor","L","cup_control","Y","8/10/2015","17:39",943,"M","35","English"
"192","A11C9D55C41PB2",1,2,234,"cat_neg","cat_pos","cat_neg","negimp","negative","distractor","target","L","cat_pos","N","8/10/2015","17:39",710.000000000001,"M","35","English"
"193","A11C9D55C41PB2",1,2,235,"banana_neg","banana_neg","banana_pos","negimp","negative","target","distractor","L","banana_neg","Y","8/10/2015","17:39",1119,"M","35","English"
"194","A11C9D55C41PB2",1,2,236,"flower_implic","flower_implic","flower_control","negimp","implicature","target","distractor","L","flower_implic","Y","8/10/2015","17:39",710,"M","35","English"
"195","A11C9D55C41PB2",1,2,237,"car_control","car_foil","car_control","negimp","unambiguous","distractor","target","R","car_control","Y","8/10/2015","17:39",918,"M","35","English"
"196","A11C9D55C41PB2",1,2,238,"bird_neg","bird_neg","bird_pos","negimp","negative","target","distractor","L","bird_neg","Y","8/10/2015","17:39",744,"M","35","English"
"197","A11C9D55C41PB2",1,2,239,"dog_implic","dog_implic","dog_control","negimp","implicature","target","distractor","L","dog_implic","Y","8/10/2015","17:39",1185,"M","35","English"
"198","A11C9D55C41PB2",1,2,240,"lamp_pos","lamp_neg","lamp_pos","negimp","positive","distractor","target","L","lamp_neg","N","8/10/2015","17:39",859,"M","35","English"
"199","A11C9D55C41PB2",1,2,1,"apple_pos","apple_inhib","apple_pos","inhibition","control","distractor","target","R","apple_pos","Y","8/10/2015","17:39",867,"M","35","English"
"200","A11C9D55C41PB2",1,2,121,"banana_pos","banana_pos","banana_neg","negimp","positive","target","distractor","L","banana_pos","Y","8/10/2015","17:39",1219,"M","35","English"
"201","A11C9D55C41PB2",1,2,122,"cup_control","cup_foil","cup_control","negimp","unambiguous","distractor","target","R","cup_control","Y","8/10/2015","17:39",1162,"M","35","English"
"202","A11C9D55C41PB2",1,2,123,"apple_pos","apple_pos","apple_neg","negimp","positive","target","distractor","L","apple_pos","Y","8/10/2015","17:39",739,"M","35","English"
"203","A11C9D55C41PB2",1,2,124,"cat_neg","cat_neg","cat_pos","negimp","negative","target","distractor","L","cat_neg","Y","8/10/2015","17:39",741.000000000001,"M","35","English"
"204","A11C9D55C41PB2",1,2,125,"cookie_implic","cookie_implic","cookie_control","negimp","implicature","target","distractor","L","cookie_implic","Y","8/10/2015","17:39",697,"M","35","English"
"205","A11C9D55C41PB2",1,2,126,"teddybear_control","teddybear_control","teddybear_foil","negimp","unambiguous","target","distractor","L","teddybear_control","Y","8/10/2015","17:39",724,"M","35","English"
"206","A11C9D55C41PB2",1,2,127,"dog_pos","dog_pos","dog_neg","negimp","positive","target","distractor","L","dog_pos","Y","8/10/2015","17:39",805,"M","35","English"
"207","A11C9D55C41PB2",1,2,128,"bicycle_implic","bicycle_implic","bicycle_control","negimp","implicature","target","distractor","L","bicycle_implic","Y","8/10/2015","17:39",696,"M","35","English"
"208","A11C9D55C41PB2",1,2,129,"lamp_neg","lamp_neg","lamp_pos","negimp","negative","target","distractor","L","lamp_neg","Y","8/10/2015","17:39",906.999999999997,"M","35","English"
"209","A11C9D55C41PB2",1,2,130,"car_pos","car_neg","car_pos","negimp","positive","distractor","target","R","car_pos","Y","8/10/2015","17:39",862,"M","35","English"
"210","A11C9D55C41PB2",1,2,131,"flower_control","flower_foil","flower_control","negimp","unambiguous","distractor","target","R","flower_control","Y","8/10/2015","17:39",878,"M","35","English"
"211","A11C9D55C41PB2",1,2,132,"bird_control","bird_foil","bird_control","negimp","unambiguous","distractor","target","R","bird_control","Y","8/10/2015","17:39",787,"M","35","English"
"212","A11C9D55C41PB2",1,2,13,"car_pos","car_pos","car_inhib","inhibition","control","target","distractor","L","car_pos","Y","8/10/2015","17:39",465,"M","35","English"
"213","A11C9D55C41PB2",1,2,14,"car_inhib","car_inhib","car_pos","inhibition","inhib","target","distractor","L","car_inhib","Y","8/10/2015","17:39",869,"M","35","English"
"214","A11C9D55C41PB2",1,2,15,"dog_pos","dog_pos","dog_inhib","inhibition","control","target","distractor","L","dog_pos","Y","8/10/2015","17:39",744,"M","35","English"
"215","A11C9D55C41PB2",1,2,16,"dog_pos","dog_inhib","dog_pos","inhibition","control","distractor","target","R","dog_pos","Y","8/10/2015","17:39",569,"M","35","English"
"216","A11C9D55C41PB2",1,2,17,"dog_pos","dog_inhib","dog_pos","inhibition","control","distractor","target","R","dog_pos","Y","8/10/2015","17:39",418,"M","35","English"
"217","A11C9D55C41PB2",1,2,18,"dog_pos","dog_inhib","dog_pos","inhibition","control","distractor","target","R","dog_pos","Y","8/10/2015","17:39",425,"M","35","English"
"218","A11C9D55C41PB2",1,2,19,"dog_pos","dog_pos","dog_inhib","inhibition","control","target","distractor","L","dog_pos","Y","8/10/2015","17:39",630,"M","35","English"
"219","A11C9D55C41PB2",1,2,20,"dog_inhib","dog_inhib","dog_pos","inhibition","inhib","target","distractor","L","dog_inhib","Y","8/10/2015","17:39",794,"M","35","English"
"220","A11C9D55C41PB2",1,2,21,"teddybear_pos","teddybear_inhib","teddybear_pos","inhibition","control","distractor","target","R","teddybear_pos","Y","8/10/2015","17:39",741,"M","35","English"
"221","A11C9D55C41PB2",1,2,22,"teddybear_pos","teddybear_inhib","teddybear_pos","inhibition","control","distractor","target","R","teddybear_pos","Y","8/10/2015","17:39",454,"M","35","English"
"222","A11C9D55C41PB2",1,2,23,"teddybear_pos","teddybear_inhib","teddybear_pos","inhibition","control","distractor","target","R","teddybear_pos","Y","8/10/2015","17:39",828,"M","35","English"
"223","A11C9D55C41PB2",1,2,24,"teddybear_pos","teddybear_pos","teddybear_inhib","inhibition","control","target","distractor","L","teddybear_pos","Y","8/10/2015","17:39",475,"M","35","English"
"224","A11C9D55C41PB2",1,2,25,"teddybear_pos","teddybear_inhib","teddybear_pos","inhibition","control","distractor","target","R","teddybear_pos","Y","8/10/2015","17:39",1069,"M","35","English"
"225","A11C9D55C41PB2",1,2,26,"teddybear_pos","teddybear_pos","teddybear_inhib","inhibition","control","target","distractor","L","teddybear_pos","Y","8/10/2015","17:39",757,"M","35","English"
"226","A11C9D55C41PB2",1,2,27,"teddybear_inhib","teddybear_pos","teddybear_inhib","inhibition","inhib","distractor","target","R","teddybear_inhib","Y","8/10/2015","17:39",737,"M","35","English"
"227","A11C9D55C41PB2",1,2,28,"banana_pos","banana_pos","banana_inhib","inhibition","control","target","distractor","L","banana_pos","Y","8/10/2015","17:39",852,"M","35","English"
"228","A11C9D55C41PB2",1,2,29,"banana_pos","banana_pos","banana_inhib","inhibition","control","target","distractor","L","banana_pos","Y","8/10/2015","17:39",452,"M","35","English"
"229","A11C9D55C41PB2",1,2,30,"banana_pos","banana_inhib","banana_pos","inhibition","control","distractor","target","R","banana_pos","Y","8/10/2015","17:39",551,"M","35","English"
"230","A11C9D55C41PB2",1,2,31,"banana_pos","banana_pos","banana_inhib","inhibition","control","target","distractor","L","banana_pos","Y","8/10/2015","17:39",590,"M","35","English"
"231","A11C9D55C41PB2",1,2,32,"banana_pos","banana_inhib","banana_pos","inhibition","control","distractor","target","R","banana_pos","Y","8/10/2015","17:39",637,"M","35","English"
"232","A11C9D55C41PB2",1,2,33,"banana_inhib","banana_pos","banana_inhib","inhibition","inhib","distractor","target","R","banana_inhib","Y","8/10/2015","17:39",592,"M","35","English"
"233","A11C9D55C41PB2",1,2,34,"bicycle_pos","bicycle_inhib","bicycle_pos","inhibition","control","distractor","target","R","bicycle_pos","Y","8/10/2015","17:39",672,"M","35","English"
"234","A11C9D55C41PB2",1,2,35,"bicycle_pos","bicycle_pos","bicycle_inhib","inhibition","control","target","distractor","L","bicycle_pos","Y","8/10/2015","17:39",448,"M","35","English"
"235","A11C9D55C41PB2",1,2,36,"bicycle_pos","bicycle_pos","bicycle_inhib","inhibition","control","target","distractor","L","bicycle_pos","Y","8/10/2015","17:39",671,"M","35","English"
"236","A11C9D55C41PB2",1,2,37,"bicycle_pos","bicycle_inhib","bicycle_pos","inhibition","control","distractor","target","R","bicycle_pos","Y","8/10/2015","17:39",519,"M","35","English"
"237","A11C9D55C41PB2",1,2,38,"bicycle_pos","bicycle_pos","bicycle_inhib","inhibition","control","target","distractor","L","bicycle_pos","Y","8/10/2015","17:39",667,"M","35","English"
"238","A11C9D55C41PB2",1,2,39,"bicycle_inhib","bicycle_inhib","bicycle_pos","inhibition","inhib","target","distractor","L","bicycle_inhib","Y","8/10/2015","17:39",709,"M","35","English"
"239","A11C9D55C41PB2",1,2,40,"cat_pos","cat_pos","cat_inhib","inhibition","control","target","distractor","L","cat_pos","Y","8/10/2015","17:39",640,"M","35","English"
"240","A11C9D55C41PB2",1,2,41,"cat_pos","cat_pos","cat_inhib","inhibition","control","target","distractor","L","cat_pos","Y","8/10/2015","17:39",463,"M","35","English"
"241","A11C9D55C41PB2",1,2,42,"cat_pos","cat_pos","cat_inhib","inhibition","control","target","distractor","L","cat_pos","Y","8/10/2015","17:39",477,"M","35","English"
"242","A11C9D55C41PB2",1,2,43,"cat_pos","cat_inhib","cat_pos","inhibition","control","distractor","target","R","cat_pos","Y","8/10/2015","17:39",491,"M","35","English"
"243","A11C9D55C41PB2",1,2,44,"cat_pos","cat_inhib","cat_pos","inhibition","control","distractor","target","R","cat_pos","Y","8/10/2015","17:39",542,"M","35","English"
"244","A11C9D55C41PB2",1,2,45,"cat_pos","cat_pos","cat_inhib","inhibition","control","target","distractor","L","cat_pos","Y","8/10/2015","17:39",779,"M","35","English"
"245","A11C9D55C41PB2",1,2,46,"cat_inhib","cat_pos","cat_inhib","inhibition","inhib","distractor","target","R","cat_inhib","Y","8/10/2015","17:39",656,"M","35","English"
"246","A11C9D55C41PB2",1,2,47,"flower_pos","flower_pos","flower_inhib","inhibition","control","target","distractor","L","flower_pos","Y","8/10/2015","17:39",737,"M","35","English"
"247","A11C9D55C41PB2",1,2,49,"flower_pos","flower_pos","flower_inhib","inhibition","control","target","distractor","L","flower_pos","Y","8/10/2015","17:39",549,"M","35","English"
"248","A11C9D55C41PB2",1,2,48,"flower_pos","flower_pos","flower_inhib","inhibition","control","target","distractor","L","flower_pos","Y","8/10/2015","17:39",556,"M","35","English"
"249","A11C9D55C41PB2",1,2,50,"flower_pos","flower_inhib","flower_pos","inhibition","control","distractor","target","R","flower_pos","Y","8/10/2015","17:39",758,"M","35","English"
"250","A11C9D55C41PB2",1,2,51,"flower_pos","flower_inhib","flower_pos","inhibition","control","distractor","target","R","flower_pos","Y","8/10/2015","17:39",713,"M","35","English"
"251","A11C9D55C41PB2",1,2,52,"flower_pos","flower_inhib","flower_pos","inhibition","control","distractor","target","R","flower_pos","Y","8/10/2015","17:39",587,"M","35","English"
"252","A11C9D55C41PB2",1,2,53,"flower_inhib","flower_inhib","flower_pos","inhibition","inhib","target","distractor","L","flower_inhib","Y","8/10/2015","17:39",728,"M","35","English"
"253","A11C9D55C41PB2",1,2,54,"cookie_pos","cookie_inhib","cookie_pos","inhibition","control","distractor","target","R","cookie_pos","Y","8/10/2015","17:39",705,"M","35","English"
"254","A11C9D55C41PB2",1,2,55,"cookie_pos","cookie_inhib","cookie_pos","inhibition","control","distractor","target","R","cookie_pos","Y","8/10/2015","17:39",454,"M","35","English"
"255","A11C9D55C41PB2",1,2,56,"cookie_pos","cookie_pos","cookie_inhib","inhibition","control","target","distractor","L","cookie_pos","Y","8/10/2015","17:39",533,"M","35","English"
"256","A11C9D55C41PB2",1,2,57,"cookie_pos","cookie_pos","cookie_inhib","inhibition","control","target","distractor","L","cookie_pos","Y","8/10/2015","17:39",533,"M","35","English"
"257","A11C9D55C41PB2",1,2,58,"cookie_pos","cookie_inhib","cookie_pos","inhibition","control","distractor","target","R","cookie_pos","Y","8/10/2015","17:39",531,"M","35","English"
"258","A11C9D55C41PB2",1,2,59,"cookie_pos","cookie_inhib","cookie_pos","inhibition","control","distractor","target","R","cookie_pos","Y","8/10/2015","17:39",679,"M","35","English"
"259","A11C9D55C41PB2",1,2,60,"cookie_inhib","cookie_pos","cookie_inhib","inhibition","inhib","distractor","target","R","cookie_inhib","Y","8/10/2015","17:39",699,"M","35","English"
"260","A11C9D55C41PB2",1,2,61,"lamp_pos","lamp_inhib","lamp_pos","inhibition","control","distractor","target","R","lamp_pos","Y","8/10/2015","17:39",757,"M","35","English"
"261","A11C9D55C41PB2",1,2,62,"lamp_pos","lamp_inhib","lamp_pos","inhibition","control","distractor","target","R","lamp_pos","Y","8/10/2015","17:39",432,"M","35","English"
"262","A11C9D55C41PB2",1,2,63,"lamp_pos","lamp_inhib","lamp_pos","inhibition","control","distractor","target","R","lamp_pos","Y","8/10/2015","17:39",508,"M","35","English"
"263","A11C9D55C41PB2",1,2,64,"lamp_pos","lamp_inhib","lamp_pos","inhibition","control","distractor","target","R","lamp_pos","Y","8/10/2015","17:39",433,"M","35","English"
"264","A11C9D55C41PB2",1,2,65,"lamp_pos","lamp_inhib","lamp_pos","inhibition","control","distractor","target","R","lamp_pos","Y","8/10/2015","17:39",474,"M","35","English"
"265","A11C9D55C41PB2",1,2,66,"lamp_pos","lamp_pos","lamp_inhib","inhibition","control","target","distractor","L","lamp_pos","Y","8/10/2015","17:39",1076,"M","35","English"
"266","A11C9D55C41PB2",1,2,67,"lamp_inhib","lamp_pos","lamp_inhib","inhibition","inhib","distractor","target","R","lamp_inhib","Y","8/10/2015","17:39",748,"M","35","English"
"267","A11C9D55C41PB2",1,2,68,"bird_pos","bird_pos","bird_inhib","inhibition","control","target","distractor","L","bird_pos","Y","8/10/2015","17:39",980,"M","35","English"
"268","A11C9D55C41PB2",1,2,69,"bird_pos","bird_inhib","bird_pos","inhibition","control","distractor","target","R","bird_pos","Y","8/10/2015","17:39",554,"M","35","English"
"269","A11C9D55C41PB2",1,2,70,"bird_pos","bird_inhib","bird_pos","inhibition","control","distractor","target","R","bird_pos","Y","8/10/2015","17:39",469,"M","35","English"
"270","A11C9D55C41PB2",1,2,71,"bird_pos","bird_pos","bird_inhib","inhibition","control","target","distractor","L","bird_pos","Y","8/10/2015","17:39",500,"M","35","English"
"271","A11C9D55C41PB2",1,2,72,"bird_pos","bird_pos","bird_inhib","inhibition","control","target","distractor","L","bird_pos","Y","8/10/2015","17:39",477,"M","35","English"
"272","A11C9D55C41PB2",1,2,73,"bird_pos","bird_pos","bird_inhib","inhibition","control","target","distractor","L","bird_pos","Y","8/10/2015","17:39",593,"M","35","English"
"273","A11C9D55C41PB2",1,2,74,"bird_inhib","bird_inhib","bird_pos","inhibition","inhib","target","distractor","L","bird_inhib","Y","8/10/2015","17:39",626,"M","35","English"
"274","A11C9D55C41PB2",1,2,75,"cup_pos","cup_inhib","cup_pos","inhibition","control","distractor","target","R","cup_pos","Y","8/10/2015","17:39",703,"M","35","English"
"275","A11C9D55C41PB2",1,2,76,"cup_pos","cup_pos","cup_inhib","inhibition","control","target","distractor","L","cup_pos","Y","8/10/2015","17:39",404,"M","35","English"
"276","A11C9D55C41PB2",1,2,77,"cup_pos","cup_pos","cup_inhib","inhibition","control","target","distractor","L","cup_pos","Y","8/10/2015","17:39",483,"M","35","English"
"277","A11C9D55C41PB2",1,2,79,"cup_pos","cup_pos","cup_inhib","inhibition","control","target","distractor","L","cup_pos","Y","8/10/2015","17:39",519,"M","35","English"
"278","A11C9D55C41PB2",1,2,78,"cup_pos","cup_pos","cup_inhib","inhibition","control","target","distractor","L","cup_pos","Y","8/10/2015","17:39",495,"M","35","English"
"279","A11C9D55C41PB2",1,2,80,"cup_inhib","cup_pos","cup_inhib","inhibition","inhib","distractor","target","R","cup_inhib","Y","8/10/2015","17:39",644,"M","35","English"
"280","A11C9D55C41PB2",1,2,81,"cookie_pos","cookie_pos","cookie_inhib","inhibition","control","target","distractor","L","cookie_pos","Y","8/10/2015","17:39",686,"M","35","English"
"281","A11C9D55C41PB2",1,2,82,"cookie_pos","cookie_pos","cookie_inhib","inhibition","control","target","distractor","L","cookie_pos","Y","8/10/2015","17:39",687,"M","35","English"
"282","A11C9D55C41PB2",1,2,83,"cookie_pos","cookie_pos","cookie_inhib","inhibition","control","target","distractor","L","cookie_pos","Y","8/10/2015","17:39",428,"M","35","English"
"283","A11C9D55C41PB2",1,2,84,"cookie_pos","cookie_inhib","cookie_pos","inhibition","control","distractor","target","R","cookie_pos","Y","8/10/2015","17:39",487,"M","35","English"
"284","A11C9D55C41PB2",1,2,85,"cookie_pos","cookie_inhib","cookie_pos","inhibition","control","distractor","target","R","cookie_pos","Y","8/10/2015","17:39",414,"M","35","English"
"285","A11C9D55C41PB2",1,2,86,"cookie_pos","cookie_pos","cookie_inhib","inhibition","control","target","distractor","L","cookie_pos","Y","8/10/2015","17:39",445,"M","35","English"
"286","A11C9D55C41PB2",1,2,87,"cookie_inhib","cookie_pos","cookie_inhib","inhibition","inhib","distractor","target","R","cookie_inhib","Y","8/10/2015","17:39",689,"M","35","English"
"287","A11C9D55C41PB2",1,2,88,"banana_pos","banana_pos","banana_inhib","inhibition","control","target","distractor","L","banana_pos","Y","8/10/2015","17:39",645,"M","35","English"
"288","A11C9D55C41PB2",1,2,89,"banana_pos","banana_inhib","banana_pos","inhibition","control","distractor","target","R","banana_pos","Y","8/10/2015","17:39",437,"M","35","English"
"289","A11C9D55C41PB2",1,2,90,"banana_pos","banana_inhib","banana_pos","inhibition","control","distractor","target","R","banana_pos","Y","8/10/2015","17:39",475,"M","35","English"
"290","A11C9D55C41PB2",1,2,91,"banana_pos","banana_inhib","banana_pos","inhibition","control","distractor","target","R","banana_pos","Y","8/10/2015","17:39",418,"M","35","English"
"291","A11C9D55C41PB2",1,2,92,"banana_pos","banana_inhib","banana_pos","inhibition","control","distractor","target","R","banana_pos","Y","8/10/2015","17:39",429,"M","35","English"
"292","A11C9D55C41PB2",1,2,93,"banana_pos","banana_inhib","banana_pos","inhibition","control","distractor","target","R","banana_pos","Y","8/10/2015","17:39",396,"M","35","English"
"293","A11C9D55C41PB2",1,2,94,"banana_inhib","banana_pos","banana_inhib","inhibition","inhib","distractor","target","R","banana_inhib","Y","8/10/2015","17:39",591,"M","35","English"
"294","A11C9D55C41PB2",1,2,96,"cup_pos","cup_inhib","cup_pos","inhibition","control","distractor","target","R","cup_pos","Y","8/10/2015","17:39",369,"M","35","English"
"295","A11C9D55C41PB2",1,2,95,"cup_pos","cup_inhib","cup_pos","inhibition","control","distractor","target","R","cup_pos","Y","8/10/2015","17:39",628,"M","35","English"
"296","A11C9D55C41PB2",1,2,97,"cup_pos","cup_inhib","cup_pos","inhibition","control","distractor","target","R","cup_pos","Y","8/10/2015","17:39",378,"M","35","English"
"297","A11C9D55C41PB2",1,2,98,"cup_pos","cup_inhib","cup_pos","inhibition","control","distractor","target","R","cup_pos","Y","8/10/2015","17:39",365,"M","35","English"
"298","A11C9D55C41PB2",1,2,99,"cup_pos","cup_pos","cup_inhib","inhibition","control","target","distractor","L","cup_pos","Y","8/10/2015","17:39",818,"M","35","English"
"299","A11C9D55C41PB2",1,2,100,"cup_inhib","cup_pos","cup_inhib","inhibition","inhib","distractor","target","R","cup_inhib","Y","8/10/2015","17:39",830,"M","35","English"
"300","A11C9D55C41PB2",1,2,101,"bicycle_pos","bicycle_inhib","bicycle_pos","inhibition","control","distractor","target","R","bicycle_pos","Y","8/10/2015","17:39",638,"M","35","English"
"301","A11C9D55C41PB2",1,2,102,"bicycle_pos","bicycle_pos","bicycle_inhib","inhibition","control","target","distractor","L","bicycle_pos","Y","8/10/2015","17:39",397,"M","35","English"
"302","A11C9D55C41PB2",1,2,103,"bicycle_pos","bicycle_inhib","bicycle_pos","inhibition","control","distractor","target","R","bicycle_pos","Y","8/10/2015","17:39",443,"M","35","English"
"303","A11C9D55C41PB2",1,2,104,"bicycle_pos","bicycle_pos","bicycle_inhib","inhibition","control","target","distractor","L","bicycle_pos","Y","8/10/2015","17:39",452,"M","35","English"
"304","A11C9D55C41PB2",1,2,105,"bicycle_pos","bicycle_inhib","bicycle_pos","inhibition","control","distractor","target","R","bicycle_pos","Y","8/10/2015","17:39",516,"M","35","English"
"305","A11C9D55C41PB2",1,2,106,"bicycle_inhib","bicycle_pos","bicycle_inhib","inhibition","inhib","distractor","target","R","bicycle_inhib","Y","8/10/2015","17:39",722,"M","35","English"
"306","A11C9D55C41PB2",1,2,107,"lamp_pos","lamp_inhib","lamp_pos","inhibition","control","distractor","target","R","lamp_pos","Y","8/10/2015","17:39",741,"M","35","English"
"307","A11C9D55C41PB2",1,2,108,"lamp_pos","lamp_pos","lamp_inhib","inhibition","control","target","distractor","L","lamp_pos","Y","8/10/2015","17:39",367,"M","35","English"
"308","A11C9D55C41PB2",1,2,109,"lamp_pos","lamp_inhib","lamp_pos","inhibition","control","distractor","target","R","lamp_pos","Y","8/10/2015","17:39",369,"M","35","English"
"309","A11C9D55C41PB2",1,2,110,"lamp_pos","lamp_pos","lamp_inhib","inhibition","control","target","distractor","L","lamp_pos","Y","8/10/2015","17:39",424,"M","35","English"
"310","A11C9D55C41PB2",1,2,111,"lamp_pos","lamp_pos","lamp_inhib","inhibition","control","target","distractor","L","lamp_pos","Y","8/10/2015","17:39",569,"M","35","English"
"311","A11C9D55C41PB2",1,2,112,"lamp_pos","lamp_inhib","lamp_pos","inhibition","control","distractor","target","R","lamp_pos","Y","8/10/2015","17:39",845,"M","35","English"
"312","A11C9D55C41PB2",1,2,113,"lamp_inhib","lamp_pos","lamp_inhib","inhibition","inhib","distractor","target","R","lamp_inhib","Y","8/10/2015","17:39",781,"M","35","English"
"313","A11C9D55C41PB2",1,2,114,"cat_pos","cat_pos","cat_inhib","inhibition","control","target","distractor","R","cat_inhib","N","8/10/2015","17:39",651,"M","35","English"
"314","A11C9D55C41PB2",1,2,115,"cat_pos","cat_pos","cat_inhib","inhibition","control","target","distractor","L","cat_pos","Y","8/10/2015","17:39",666,"M","35","English"
"315","A11C9D55C41PB2",1,2,116,"cat_pos","cat_pos","cat_inhib","inhibition","control","target","distractor","L","cat_pos","Y","8/10/2015","17:39",379,"M","35","English"
"316","A11C9D55C41PB2",1,2,117,"cat_pos","cat_pos","cat_inhib","inhibition","control","target","distractor","L","cat_pos","Y","8/10/2015","17:39",494,"M","35","English"
"317","A11C9D55C41PB2",1,2,118,"cat_pos","cat_inhib","cat_pos","inhibition","control","distractor","target","R","cat_pos","Y","8/10/2015","17:39",779,"M","35","English"
"318","A11C9D55C41PB2",1,2,119,"cat_pos","cat_pos","cat_inhib","inhibition","control","target","distractor","L","cat_pos","Y","8/10/2015","17:39",575,"M","35","English"
"319","A11C9D55C41PB2",1,2,120,"cat_inhib","cat_pos","cat_inhib","inhibition","inhib","distractor","target","R","cat_inhib","Y","8/10/2015","17:39",635,"M","35","English"
"320","A11C9D55C41PB2",1,2,121,"teddybear_pos","teddybear_pos","teddybear_inhib","inhibition","control","target","distractor","L","teddybear_pos","Y","8/10/2015","17:39",647,"M","35","English"
"321","A11C9D55C41PB2",1,2,122,"teddybear_pos","teddybear_inhib","teddybear_pos","inhibition","control","distractor","target","R","teddybear_pos","Y","8/10/2015","17:39",960,"M","35","English"
"322","A11C9D55C41PB2",1,2,123,"teddybear_pos","teddybear_pos","teddybear_inhib","inhibition","control","target","distractor","L","teddybear_pos","Y","8/10/2015","17:39",365,"M","35","English"
"323","A11C9D55C41PB2",1,2,124,"teddybear_pos","teddybear_pos","teddybear_inhib","inhibition","control","target","distractor","L","teddybear_pos","Y","8/10/2015","17:39",549,"M","35","English"
"324","A11C9D55C41PB2",1,2,125,"teddybear_pos","teddybear_pos","teddybear_inhib","inhibition","control","target","distractor","L","teddybear_pos","Y","8/10/2015","17:39",510,"M","35","English"
"325","A11C9D55C41PB2",1,2,126,"teddybear_inhib","teddybear_pos","teddybear_inhib","inhibition","inhib","distractor","target","R","teddybear_inhib","Y","8/10/2015","17:39",701,"M","35","English"
"326","A11C9D55C41PB2",1,2,127,"flower_pos","flower_pos","flower_inhib","inhibition","control","target","distractor","L","flower_pos","Y","8/10/2015","17:39",713,"M","35","English"
"327","A11C9D55C41PB2",1,2,128,"flower_pos","flower_pos","flower_inhib","inhibition","control","target","distractor","L","flower_pos","Y","8/10/2015","17:39",525,"M","35","English"
"328","A11C9D55C41PB2",1,2,129,"flower_pos","flower_pos","flower_inhib","inhibition","control","target","distractor","L","flower_pos","Y","8/10/2015","17:39",599,"M","35","English"
"329","A11C9D55C41PB2",1,2,130,"flower_pos","flower_pos","flower_inhib","inhibition","control","target","distractor","L","flower_pos","Y","8/10/2015","17:39",629,"M","35","English"
"330","A11C9D55C41PB2",1,2,131,"flower_pos","flower_inhib","flower_pos","inhibition","control","distractor","target","R","flower_pos","Y","8/10/2015","17:39",1325,"M","35","English"
"331","A11C9D55C41PB2",1,2,132,"flower_pos","flower_pos","flower_inhib","inhibition","control","target","distractor","L","flower_pos","Y","8/10/2015","17:39",806,"M","35","English"
"332","A11C9D55C41PB2",1,2,133,"flower_inhib","flower_pos","flower_inhib","inhibition","inhib","distractor","target","R","flower_inhib","Y","8/10/2015","17:39",726,"M","35","English"
"333","A11C9D55C41PB2",1,2,134,"apple_pos","apple_inhib","apple_pos","inhibition","control","distractor","target","R","apple_pos","Y","8/10/2015","17:39",694,"M","35","English"
"334","A11C9D55C41PB2",1,2,135,"apple_pos","apple_pos","apple_inhib","inhibition","control","target","distractor","L","apple_pos","Y","8/10/2015","17:39",380,"M","35","English"
"335","A11C9D55C41PB2",1,2,136,"apple_pos","apple_inhib","apple_pos","inhibition","control","distractor","target","R","apple_pos","Y","8/10/2015","17:39",427,"M","35","English"
"336","A11C9D55C41PB2",1,2,137,"apple_pos","apple_pos","apple_inhib","inhibition","control","target","distractor","L","apple_pos","Y","8/10/2015","17:39",431,"M","35","English"
"337","A11C9D55C41PB2",1,2,138,"apple_pos","apple_pos","apple_inhib","inhibition","control","target","distractor","L","apple_pos","Y","8/10/2015","17:39",479,"M","35","English"
"338","A11C9D55C41PB2",1,2,139,"apple_inhib","apple_inhib","apple_pos","inhibition","inhib","target","distractor","L","apple_inhib","Y","8/10/2015","17:39",683,"M","35","English"
"339","A11C9D55C41PB2",1,2,140,"dog_pos","dog_pos","dog_inhib","inhibition","control","target","distractor","L","dog_pos","Y","8/10/2015","17:39",721,"M","35","English"
"340","A11C9D55C41PB2",1,2,142,"dog_pos","dog_pos","dog_inhib","inhibition","control","target","distractor","L","dog_pos","Y","8/10/2015","17:39",380,"M","35","English"
"341","A11C9D55C41PB2",1,2,141,"dog_pos","dog_pos","dog_inhib","inhibition","control","target","distractor","L","dog_pos","Y","8/10/2015","17:39",434,"M","35","English"
"342","A11C9D55C41PB2",1,2,143,"dog_pos","dog_inhib","dog_pos","inhibition","control","distractor","target","R","dog_pos","Y","8/10/2015","17:39",469,"M","35","English"
"343","A11C9D55C41PB2",1,2,146,"dog_inhib","dog_pos","dog_inhib","inhibition","inhib","distractor","target","R","dog_inhib","Y","8/10/2015","17:39",617,"M","35","English"
"344","A11C9D55C41PB2",1,2,144,"dog_pos","dog_pos","dog_inhib","inhibition","control","target","distractor","L","dog_pos","Y","8/10/2015","17:39",389,"M","35","English"
"345","A11C9D55C41PB2",1,2,145,"dog_pos","dog_pos","dog_inhib","inhibition","control","target","distractor","L","dog_pos","Y","8/10/2015","17:39",450,"M","35","English"
"346","A11C9D55C41PB2",1,2,147,"bird_pos","bird_pos","bird_inhib","inhibition","control","target","distractor","L","bird_pos","Y","8/10/2015","17:39",628,"M","35","English"
"347","A11C9D55C41PB2",1,2,148,"bird_pos","bird_pos","bird_inhib","inhibition","control","target","distractor","L","bird_pos","Y","8/10/2015","17:39",637,"M","35","English"
"348","A11C9D55C41PB2",1,2,149,"bird_pos","bird_inhib","bird_pos","inhibition","control","distractor","target","R","bird_pos","Y","8/10/2015","17:39",471,"M","35","English"
"349","A11C9D55C41PB2",1,2,150,"bird_pos","bird_inhib","bird_pos","inhibition","control","distractor","target","R","bird_pos","Y","8/10/2015","17:39",472,"M","35","English"
"350","A11C9D55C41PB2",1,2,151,"bird_pos","bird_inhib","bird_pos","inhibition","control","distractor","target","R","bird_pos","Y","8/10/2015","17:39",657,"M","35","English"
"351","A11C9D55C41PB2",1,2,152,"bird_inhib","bird_pos","bird_inhib","inhibition","inhib","distractor","target","R","bird_inhib","Y","8/10/2015","17:39",591,"M","35","English"
"352","A11C9D55C41PB2",1,2,153,"car_pos","car_pos","car_inhib","inhibition","control","target","distractor","L","car_pos","Y","8/10/2015","17:39",662,"M","35","English"
"353","A11C9D55C41PB2",1,2,154,"car_pos","car_pos","car_inhib","inhibition","control","target","distractor","L","car_pos","Y","8/10/2015","17:39",383,"M","35","English"
"354","A11C9D55C41PB2",1,2,155,"car_pos","car_pos","car_inhib","inhibition","control","target","distractor","L","car_pos","Y","8/10/2015","17:39",393,"M","35","English"
"355","A11C9D55C41PB2",1,2,156,"car_pos","car_inhib","car_pos","inhibition","control","distractor","target","R","car_pos","Y","8/10/2015","17:39",494,"M","35","English"
"356","A11C9D55C41PB2",1,2,157,"car_pos","car_inhib","car_pos","inhibition","control","distractor","target","R","car_pos","Y","8/10/2015","17:39",452,"M","35","English"
"357","A11C9D55C41PB2",1,2,158,"car_inhib","car_pos","car_inhib","inhibition","inhib","distractor","target","R","car_inhib","Y","8/10/2015","17:39",734,"M","35","English"
"358","A11C9D55C41PB2",1,2,49,"cup_implic","cup_implic","cup_control","negimp","implicature","target","distractor","L","cup_implic","Y","8/10/2015","17:39",815,"M","35","English"
"359","A11C9D55C41PB2",1,2,50,"teddybear_pos","teddybear_neg","teddybear_pos","negimp","positive","distractor","target","R","teddybear_pos","Y","8/10/2015","17:39",742,"M","35","English"
"360","A11C9D55C41PB2",1,2,51,"car_pos","car_neg","car_pos","negimp","positive","distractor","target","R","car_pos","Y","8/10/2015","17:39",705,"M","35","English"
"361","A11C9D55C41PB2",1,2,52,"apple_pos","apple_neg","apple_pos","negimp","positive","distractor","target","R","apple_pos","Y","8/10/2015","17:39",800,"M","35","English"
"362","A11C9D55C41PB2",1,2,53,"dog_neg","dog_pos","dog_neg","negimp","negative","distractor","target","R","dog_neg","Y","8/10/2015","17:39",1067,"M","35","English"
"363","A11C9D55C41PB2",1,2,54,"banana_pos","banana_pos","banana_neg","negimp","positive","target","distractor","L","banana_pos","Y","8/10/2015","17:39",1272,"M","35","English"
"364","A11C9D55C41PB2",1,2,2,"apple_pos","apple_inhib","apple_pos","inhibition","control","distractor","target","R","apple_pos","Y","8/10/2015","17:39",631,"M","35","English"
"365","A11C9D55C41PB2",1,2,3,"apple_pos","apple_pos","apple_inhib","inhibition","control","target","distractor","L","apple_pos","Y","8/10/2015","17:39",655,"M","35","English"
"366","A11C9D55C41PB2",1,2,4,"apple_pos","apple_pos","apple_inhib","inhibition","control","target","distractor","L","apple_pos","Y","8/10/2015","17:39",422,"M","35","English"
"367","A11C9D55C41PB2",1,2,45,"dog_pos","dog_neg","dog_pos","negimp","positive","distractor","target","R","dog_pos","Y","8/10/2015","17:39",1071,"M","35","English"
"368","A11C9D55C41PB2",1,2,46,"banana_control","banana_foil","banana_control","negimp","unambiguous","distractor","target","R","banana_control","Y","8/10/2015","17:39",942,"M","35","English"
"369","A11C9D55C41PB2",1,2,47,"cookie_implic","cookie_implic","cookie_control","negimp","implicature","target","distractor","L","cookie_implic","Y","8/10/2015","17:39",758,"M","35","English"
"370","A11C9D55C41PB2",1,2,48,"apple_pos","apple_pos","apple_neg","negimp","positive","target","distractor","L","apple_pos","Y","8/10/2015","17:39",666,"M","35","English"
"371","A11C9D55C41PB2",1,2,62,"teddybear_neg","teddybear_pos","teddybear_neg","negimp","negative","distractor","target","R","teddybear_neg","Y","8/10/2015","17:39",841.999999999998,"M","35","English"
"372","A11C9D55C41PB2",1,2,63,"cookie_implic","cookie_control","cookie_implic","negimp","implicature","distractor","target","R","cookie_implic","Y","8/10/2015","17:39",1144,"M","35","English"
"373","A11C9D55C41PB2",1,2,64,"bicycle_implic","bicycle_control","bicycle_implic","negimp","implicature","distractor","target","R","bicycle_implic","Y","8/10/2015","17:39",668,"M","35","English"
"374","A11C9D55C41PB2",1,2,65,"dog_control","dog_foil","dog_control","negimp","unambiguous","distractor","target","R","dog_control","Y","8/10/2015","17:39",704,"M","35","English"
"375","A11C9D55C41PB2",1,2,66,"lamp_pos","lamp_neg","lamp_pos","negimp","positive","distractor","target","R","lamp_pos","Y","8/10/2015","17:39",673,"M","35","English"
"376","A11C9D55C41PB2",1,2,67,"car_implic","car_implic","car_control","negimp","implicature","target","distractor","L","car_implic","Y","8/10/2015","17:39",633,"M","35","English"
"377","A11C9D55C41PB2",1,2,55,"bird_neg","bird_neg","bird_pos","negimp","negative","target","distractor","L","bird_neg","Y","8/10/2015","17:39",1350,"M","35","English"
"378","A11C9D55C41PB2",1,2,56,"lamp_control","lamp_foil","lamp_control","negimp","unambiguous","distractor","target","R","lamp_control","Y","8/10/2015","17:39",842,"M","35","English"
"379","A11C9D55C41PB2",1,2,57,"bicycle_implic","bicycle_control","bicycle_implic","negimp","implicature","distractor","target","R","bicycle_implic","Y","8/10/2015","17:39",645,"M","35","English"
"380","A11C9D55C41PB2",1,2,58,"cat_implic","cat_control","cat_implic","negimp","implicature","distractor","target","R","cat_implic","Y","8/10/2015","17:39",651,"M","35","English"
"381","A11C9D55C41PB2",1,2,59,"flower_pos","flower_pos","flower_neg","negimp","positive","target","distractor","L","flower_pos","Y","8/10/2015","17:39",675,"M","35","English"
"382","A11C9D55C41PB2",1,2,60,"cookie_implic","cookie_implic","cookie_control","negimp","implicature","target","distractor","L","cookie_implic","Y","8/10/2015","17:39",659,"M","35","English"
"383","A11C9D55C41PB2",1,2,61,"flower_control","flower_control","flower_foil","negimp","unambiguous","target","distractor","L","flower_control","Y","8/10/2015","17:39",822,"M","35","English"
"384","A11C9D55C41PB2",1,2,8,"car_pos","car_inhib","car_pos","inhibition","control","distractor","target","R","car_pos","Y","8/10/2015","17:39",767,"M","35","English"
"385","A11C9D55C41PB2",1,2,9,"car_pos","car_inhib","car_pos","inhibition","control","distractor","target","R","car_pos","Y","8/10/2015","17:39",570,"M","35","English"
"386","A11C9D55C41PB2",1,2,10,"car_pos","car_inhib","car_pos","inhibition","control","distractor","target","R","car_pos","Y","8/10/2015","17:39",518,"M","35","English"
"387","A11C9D55C41PB2",1,2,11,"car_pos","car_pos","car_inhib","inhibition","control","target","distractor","L","car_pos","Y","8/10/2015","17:39",593,"M","35","English"
"388","A11C9D55C41PB2",1,2,12,"car_pos","car_inhib","car_pos","inhibition","control","distractor","target","R","car_pos","Y","8/10/2015","17:39",505,"M","35","English"
"389","A11C9D55C41PB2",1,2,71,"cat_control","cat_control","cat_foil","negimp","unambiguous","target","distractor","L","cat_control","Y","8/10/2015","17:39",1038,"M","35","English"
"390","A11C9D55C41PB2",1,2,68,"apple_pos","apple_pos","apple_neg","negimp","positive","target","distractor","L","apple_pos","Y","8/10/2015","17:39",623,"M","35","English"
"391","A11C9D55C41PB2",1,2,69,"bird_control","bird_control","bird_foil","negimp","unambiguous","target","distractor","L","bird_control","Y","8/10/2015","17:39",753,"M","35","English"
"392","A11C9D55C41PB2",1,2,70,"banana_neg","banana_neg","banana_pos","negimp","negative","target","distractor","L","banana_neg","Y","8/10/2015","17:39",832.000000000001,"M","35","English"
"393","A11C9D55C41PB2",1,2,7,"apple_inhib","apple_inhib","apple_pos","inhibition","inhib","target","distractor","L","apple_inhib","Y","8/10/2015","17:39",699,"M","35","English"
"394","A11C9D55C41PB2",1,2,72,"cup_neg","cup_pos","cup_neg","negimp","negative","distractor","target","R","cup_neg","Y","8/10/2015","17:39",771.000000000001,"M","35","English"
"395","A11C9D55C41PB2",1,2,73,"bicycle_control","bicycle_control","bicycle_foil","negimp","unambiguous","target","distractor","L","bicycle_control","Y","8/10/2015","17:39",775,"M","35","English"
"396","A11C9D55C41PB2",1,2,74,"lamp_pos","lamp_pos","lamp_neg","negimp","positive","target","distractor","L","lamp_pos","Y","8/10/2015","17:39",637,"M","35","English"
"397","A11C9D55C41PB2",1,2,5,"apple_pos","apple_inhib","apple_pos","inhibition","control","distractor","target","R","apple_pos","Y","8/10/2015","17:39",496,"M","35","English"
"398","A11C9D55C41PB2",1,2,6,"apple_pos","apple_inhib","apple_pos","inhibition","control","distractor","target","R","apple_pos","Y","8/10/2015","17:39",408,"M","35","English"
"399","A15Y215D57OSO5",1,1,6,"apple_pos","apple_pos","apple_inhib","inhibition","control","target","distractor","L","apple_pos","Y","8/10/2015","16:34",415,"M","35","English"
"400","A15Y215D57OSO5",1,1,2,"apple_pos","apple_pos","apple_inhib","inhibition","control","target","distractor","L","apple_pos","Y","8/10/2015","16:34",600,"M","35","English"
"401","A15Y215D57OSO5",1,1,1,"apple_pos","apple_pos","apple_inhib","inhibition","control","target","distractor","L","apple_pos","Y","8/10/2015","16:34",975,"M","35","English"
"402","A15Y215D57OSO5",1,1,44,"flower_pos","flower_inhib","flower_pos","inhibition","control","distractor","target","R","flower_pos","Y","8/10/2015","16:34",792,"M","35","English"
"403","A15Y215D57OSO5",1,1,3,"apple_pos","apple_inhib","apple_pos","inhibition","control","distractor","target","R","apple_pos","Y","8/10/2015","16:34",1154,"M","35","English"
"404","A15Y215D57OSO5",1,1,4,"apple_pos","apple_inhib","apple_pos","inhibition","control","distractor","target","R","apple_pos","Y","8/10/2015","16:34",597,"M","35","English"
"405","A15Y215D57OSO5",1,1,5,"apple_pos","apple_pos","apple_inhib","inhibition","control","target","distractor","L","apple_pos","Y","8/10/2015","16:34",537,"M","35","English"
"406","A15Y215D57OSO5",1,1,9,"car_pos","car_inhib","car_pos","inhibition","control","distractor","target","R","car_pos","Y","8/10/2015","16:34",663,"M","35","English"
"407","A15Y215D57OSO5",1,1,45,"flower_pos","flower_pos","flower_inhib","inhibition","control","target","distractor","L","flower_pos","Y","8/10/2015","16:34",551,"M","35","English"
"408","A15Y215D57OSO5",1,1,7,"apple_inhib","apple_inhib","apple_pos","inhibition","inhib","target","distractor","L","apple_inhib","Y","8/10/2015","16:34",802,"M","35","English"
"409","A15Y215D57OSO5",1,1,8,"car_pos","car_pos","car_inhib","inhibition","control","target","distractor","L","car_pos","Y","8/10/2015","16:34",680,"M","35","English"
"410","A15Y215D57OSO5",1,1,39,"cat_pos","cat_inhib","cat_pos","inhibition","control","distractor","target","R","cat_pos","Y","8/10/2015","16:34",447,"M","35","English"
"411","A15Y215D57OSO5",1,1,40,"cat_pos","cat_inhib","cat_pos","inhibition","control","distractor","target","R","cat_pos","Y","8/10/2015","16:34",470,"M","35","English"
"412","A15Y215D57OSO5",1,1,41,"cat_pos","cat_inhib","cat_pos","inhibition","control","distractor","target","R","cat_pos","Y","8/10/2015","16:34",517,"M","35","English"
"413","A15Y215D57OSO5",1,1,42,"cat_pos","cat_pos","cat_inhib","inhibition","control","target","distractor","L","cat_pos","Y","8/10/2015","16:34",649,"M","35","English"
"414","A15Y215D57OSO5",1,1,43,"cat_inhib","cat_inhib","cat_pos","inhibition","inhib","target","distractor","L","cat_inhib","Y","8/10/2015","16:34",652,"M","35","English"
"415","A15Y215D57OSO5",1,1,57,"lamp_pos","lamp_pos","lamp_inhib","inhibition","control","target","distractor","L","lamp_pos","Y","8/10/2015","16:34",787,"M","35","English"
"416","A15Y215D57OSO5",1,1,59,"lamp_pos","lamp_pos","lamp_inhib","inhibition","control","target","distractor","L","lamp_pos","Y","8/10/2015","16:34",397,"M","35","English"
"417","A15Y215D57OSO5",1,1,58,"lamp_pos","lamp_pos","lamp_inhib","inhibition","control","target","distractor","L","lamp_pos","Y","8/10/2015","16:34",589,"M","35","English"
"418","A15Y215D57OSO5",1,1,60,"lamp_pos","lamp_pos","lamp_inhib","inhibition","control","target","distractor","L","lamp_pos","Y","8/10/2015","16:34",375,"M","35","English"
"419","A15Y215D57OSO5",1,1,61,"lamp_pos","lamp_inhib","lamp_pos","inhibition","control","distractor","target","R","lamp_pos","Y","8/10/2015","16:34",764,"M","35","English"
"420","A15Y215D57OSO5",1,1,62,"lamp_pos","lamp_pos","lamp_inhib","inhibition","control","target","distractor","L","lamp_pos","Y","8/10/2015","16:34",569,"M","35","English"
"421","A15Y215D57OSO5",1,1,63,"lamp_inhib","lamp_inhib","lamp_pos","inhibition","inhib","target","distractor","L","lamp_inhib","Y","8/10/2015","16:34",612,"M","35","English"
"422","A15Y215D57OSO5",1,1,67,"bird_pos","bird_pos","bird_inhib","inhibition","control","target","distractor","L","bird_pos","Y","8/10/2015","16:34",414,"M","35","English"
"423","A15Y215D57OSO5",1,1,65,"bird_pos","bird_inhib","bird_pos","inhibition","control","distractor","target","R","bird_pos","Y","8/10/2015","16:34",407,"M","35","English"
"424","A15Y215D57OSO5",1,1,66,"bird_pos","bird_pos","bird_inhib","inhibition","control","target","distractor","L","bird_pos","Y","8/10/2015","16:34",569,"M","35","English"
"425","A15Y215D57OSO5",1,1,64,"bird_pos","bird_inhib","bird_pos","inhibition","control","distractor","target","R","bird_pos","Y","8/10/2015","16:34",696,"M","35","English"
"426","A15Y215D57OSO5",1,1,68,"bird_pos","bird_inhib","bird_pos","inhibition","control","distractor","target","R","bird_pos","Y","8/10/2015","16:34",442,"M","35","English"
"427","A15Y215D57OSO5",1,1,69,"bird_inhib","bird_pos","bird_inhib","inhibition","inhib","distractor","target","R","bird_inhib","Y","8/10/2015","16:34",684,"M","35","English"
"428","A15Y215D57OSO5",1,1,70,"cup_pos","cup_pos","cup_inhib","inhibition","control","target","distractor","L","cup_pos","Y","8/10/2015","16:34",744,"M","35","English"
"429","A15Y215D57OSO5",1,1,71,"cup_pos","cup_pos","cup_inhib","inhibition","control","target","distractor","L","cup_pos","Y","8/10/2015","16:34",431,"M","35","English"
"430","A15Y215D57OSO5",1,1,72,"cup_pos","cup_pos","cup_inhib","inhibition","control","target","distractor","L","cup_pos","Y","8/10/2015","16:34",462,"M","35","English"
"431","A15Y215D57OSO5",1,1,73,"cup_pos","cup_pos","cup_inhib","inhibition","control","target","distractor","L","cup_pos","Y","8/10/2015","16:34",425,"M","35","English"
"432","A15Y215D57OSO5",1,1,74,"cup_pos","cup_pos","cup_inhib","inhibition","control","target","distractor","L","cup_pos","Y","8/10/2015","16:34",340,"M","35","English"
"433","A15Y215D57OSO5",1,1,75,"cup_pos","cup_pos","cup_inhib","inhibition","control","target","distractor","L","cup_pos","Y","8/10/2015","16:34",558,"M","35","English"
"434","A15Y215D57OSO5",1,1,76,"cup_inhib","cup_pos","cup_inhib","inhibition","inhib","distractor","target","R","cup_inhib","Y","8/10/2015","16:34",624,"M","35","English"
"435","A15Y215D57OSO5",1,1,79,"cookie_pos","cookie_pos","cookie_inhib","inhibition","control","target","distractor","L","cookie_pos","Y","8/10/2015","16:34",469,"M","35","English"
"436","A15Y215D57OSO5",1,1,80,"cookie_pos","cookie_inhib","cookie_pos","inhibition","control","distractor","target","R","cookie_pos","Y","8/10/2015","16:34",625,"M","35","English"
"437","A15Y215D57OSO5",1,1,77,"cookie_pos","cookie_pos","cookie_inhib","inhibition","control","target","distractor","L","cookie_pos","Y","8/10/2015","16:34",696,"M","35","English"
"438","A15Y215D57OSO5",1,1,78,"cookie_pos","cookie_pos","cookie_inhib","inhibition","control","target","distractor","L","cookie_pos","Y","8/10/2015","16:34",375,"M","35","English"
"439","A15Y215D57OSO5",1,1,81,"cookie_pos","cookie_pos","cookie_inhib","inhibition","control","target","distractor","L","cookie_pos","Y","8/10/2015","16:34",530,"M","35","English"
"440","A15Y215D57OSO5",1,1,82,"cookie_inhib","cookie_pos","cookie_inhib","inhibition","inhib","distractor","target","R","cookie_inhib","Y","8/10/2015","16:34",568,"M","35","English"
"441","A15Y215D57OSO5",1,1,83,"banana_pos","banana_inhib","banana_pos","inhibition","control","distractor","target","R","banana_pos","Y","8/10/2015","16:34",645,"M","35","English"
"442","A15Y215D57OSO5",1,1,84,"banana_pos","banana_inhib","banana_pos","inhibition","control","distractor","target","R","banana_pos","Y","8/10/2015","16:34",422,"M","35","English"
"443","A15Y215D57OSO5",1,1,85,"banana_pos","banana_pos","banana_inhib","inhibition","control","target","distractor","L","banana_pos","Y","8/10/2015","16:34",513,"M","35","English"
"444","A15Y215D57OSO5",1,1,46,"flower_pos","flower_pos","flower_inhib","inhibition","control","target","distractor","L","flower_pos","Y","8/10/2015","16:34",423,"M","35","English"
"445","A15Y215D57OSO5",1,1,48,"flower_pos","flower_pos","flower_inhib","inhibition","control","target","distractor","L","flower_pos","Y","8/10/2015","16:34",359,"M","35","English"
"446","A15Y215D57OSO5",1,1,47,"flower_pos","flower_pos","flower_inhib","inhibition","control","target","distractor","L","flower_pos","Y","8/10/2015","16:34",477,"M","35","English"
"447","A15Y215D57OSO5",1,1,49,"flower_inhib","flower_pos","flower_inhib","inhibition","inhib","distractor","target","R","flower_inhib","Y","8/10/2015","16:34",600,"M","35","English"
"448","A15Y215D57OSO5",1,1,51,"cookie_pos","cookie_pos","cookie_inhib","inhibition","control","target","distractor","L","cookie_pos","Y","8/10/2015","16:34",499,"M","35","English"
"449","A15Y215D57OSO5",1,1,50,"cookie_pos","cookie_inhib","cookie_pos","inhibition","control","distractor","target","R","cookie_pos","Y","8/10/2015","16:34",699,"M","35","English"
"450","A15Y215D57OSO5",1,1,52,"cookie_pos","cookie_inhib","cookie_pos","inhibition","control","distractor","target","R","cookie_pos","Y","8/10/2015","16:34",1006,"M","35","English"
"451","A15Y215D57OSO5",1,1,53,"cookie_pos","cookie_pos","cookie_inhib","inhibition","control","target","distractor","L","cookie_pos","Y","8/10/2015","16:34",557,"M","35","English"
"452","A15Y215D57OSO5",1,1,54,"cookie_pos","cookie_pos","cookie_inhib","inhibition","control","target","distractor","L","cookie_pos","Y","8/10/2015","16:34",413,"M","35","English"
"453","A15Y215D57OSO5",1,1,55,"cookie_pos","cookie_pos","cookie_inhib","inhibition","control","target","distractor","L","cookie_pos","Y","8/10/2015","16:34",4384,"M","35","English"
"454","A15Y215D57OSO5",1,1,56,"cookie_inhib","cookie_inhib","cookie_pos","inhibition","inhib","target","distractor","L","cookie_inhib","Y","8/10/2015","16:34",787,"M","35","English"
"455","A15Y215D57OSO5",1,1,97,"bicycle_pos","bicycle_inhib","bicycle_pos","inhibition","control","distractor","target","R","bicycle_pos","Y","8/10/2015","16:34",481,"M","35","English"
"456","A15Y215D57OSO5",1,1,98,"bicycle_pos","bicycle_inhib","bicycle_pos","inhibition","control","distractor","target","R","bicycle_pos","Y","8/10/2015","16:34",419,"M","35","English"
"457","A15Y215D57OSO5",1,1,99,"bicycle_pos","bicycle_pos","bicycle_inhib","inhibition","control","target","distractor","L","bicycle_pos","Y","8/10/2015","16:34",585,"M","35","English"
"458","A15Y215D57OSO5",1,1,100,"bicycle_pos","bicycle_pos","bicycle_inhib","inhibition","control","target","distractor","L","bicycle_pos","Y","8/10/2015","16:34",389,"M","35","English"
"459","A15Y215D57OSO5",1,1,101,"bicycle_pos","bicycle_inhib","bicycle_pos","inhibition","control","distractor","target","R","bicycle_pos","Y","8/10/2015","16:34",544,"M","35","English"
"460","A15Y215D57OSO5",1,1,102,"bicycle_inhib","bicycle_inhib","bicycle_pos","inhibition","inhib","target","distractor","L","bicycle_inhib","Y","8/10/2015","16:34",608,"M","35","English"
"461","A15Y215D57OSO5",1,1,103,"lamp_pos","lamp_pos","lamp_inhib","inhibition","control","target","distractor","L","lamp_pos","Y","8/10/2015","16:34",764,"M","35","English"
"462","A15Y215D57OSO5",1,1,104,"lamp_pos","lamp_pos","lamp_inhib","inhibition","control","target","distractor","L","lamp_pos","Y","8/10/2015","16:34",1043,"M","35","English"
"463","A15Y215D57OSO5",1,1,105,"lamp_pos","lamp_inhib","lamp_pos","inhibition","control","distractor","target","R","lamp_pos","Y","8/10/2015","16:34",561,"M","35","English"
"464","A15Y215D57OSO5",1,1,106,"lamp_pos","lamp_pos","lamp_inhib","inhibition","control","target","distractor","L","lamp_pos","Y","8/10/2015","16:34",547,"M","35","English"
"465","A15Y215D57OSO5",1,1,107,"lamp_pos","lamp_pos","lamp_inhib","inhibition","control","target","distractor","L","lamp_pos","Y","8/10/2015","16:34",565,"M","35","English"
"466","A15Y215D57OSO5",1,1,108,"lamp_pos","lamp_inhib","lamp_pos","inhibition","control","distractor","target","R","lamp_pos","Y","8/10/2015","16:34",464,"M","35","English"
"467","A15Y215D57OSO5",1,1,109,"lamp_inhib","lamp_pos","lamp_inhib","inhibition","inhib","distractor","target","R","lamp_inhib","Y","8/10/2015","16:34",572,"M","35","English"
"468","A15Y215D57OSO5",1,1,110,"cat_pos","cat_pos","cat_inhib","inhibition","control","target","distractor","L","cat_pos","Y","8/10/2015","16:34",761,"M","35","English"
"469","A15Y215D57OSO5",1,1,113,"cat_pos","cat_inhib","cat_pos","inhibition","control","distractor","target","R","cat_pos","Y","8/10/2015","16:34",328,"M","35","English"
"470","A15Y215D57OSO5",1,1,111,"cat_pos","cat_inhib","cat_pos","inhibition","control","distractor","target","R","cat_pos","Y","8/10/2015","16:34",544,"M","35","English"
"471","A15Y215D57OSO5",1,1,112,"cat_pos","cat_inhib","cat_pos","inhibition","control","distractor","target","R","cat_pos","Y","8/10/2015","16:34",366,"M","35","English"
"472","A15Y215D57OSO5",1,1,114,"cat_pos","cat_pos","cat_inhib","inhibition","control","target","distractor","L","cat_pos","Y","8/10/2015","16:34",528,"M","35","English"
"473","A15Y215D57OSO5",1,1,115,"cat_pos","cat_inhib","cat_pos","inhibition","control","distractor","target","R","cat_pos","Y","8/10/2015","16:34",679,"M","35","English"
"474","A15Y215D57OSO5",1,1,117,"teddybear_pos","teddybear_pos","teddybear_inhib","inhibition","control","target","distractor","L","teddybear_pos","Y","8/10/2015","16:34",703,"M","35","English"
"475","A15Y215D57OSO5",1,1,116,"cat_inhib","cat_pos","cat_inhib","inhibition","inhib","distractor","target","R","cat_inhib","Y","8/10/2015","16:34",621,"M","35","English"
"476","A15Y215D57OSO5",1,1,118,"teddybear_pos","teddybear_inhib","teddybear_pos","inhibition","control","distractor","target","R","teddybear_pos","Y","8/10/2015","16:34",526,"M","35","English"
"477","A15Y215D57OSO5",1,1,119,"teddybear_pos","teddybear_inhib","teddybear_pos","inhibition","control","distractor","target","R","teddybear_pos","Y","8/10/2015","16:34",390,"M","35","English"
"478","A15Y215D57OSO5",1,1,122,"teddybear_inhib","teddybear_pos","teddybear_inhib","inhibition","inhib","distractor","target","R","teddybear_inhib","Y","8/10/2015","16:34",803,"M","35","English"
"479","A15Y215D57OSO5",1,1,121,"teddybear_pos","teddybear_inhib","teddybear_pos","inhibition","control","distractor","target","R","teddybear_pos","Y","8/10/2015","16:34",471,"M","35","English"
"480","A15Y215D57OSO5",1,1,124,"flower_pos","flower_inhib","flower_pos","inhibition","control","distractor","target","R","flower_pos","Y","8/10/2015","16:34",452,"M","35","English"
"481","A15Y215D57OSO5",1,1,120,"teddybear_pos","teddybear_pos","teddybear_inhib","inhibition","control","target","distractor","L","teddybear_pos","Y","8/10/2015","16:34",682,"M","35","English"
"482","A15Y215D57OSO5",1,1,123,"flower_pos","flower_inhib","flower_pos","inhibition","control","distractor","target","R","flower_pos","Y","8/10/2015","16:34",645,"M","35","English"
"483","A15Y215D57OSO5",1,1,125,"flower_pos","flower_inhib","flower_pos","inhibition","control","distractor","target","R","flower_pos","Y","8/10/2015","16:34",375,"M","35","English"
"484","A15Y215D57OSO5",1,1,126,"flower_pos","flower_inhib","flower_pos","inhibition","control","distractor","target","R","flower_pos","Y","8/10/2015","16:34",373,"M","35","English"
"485","A15Y215D57OSO5",1,1,127,"flower_pos","flower_inhib","flower_pos","inhibition","control","distractor","target","R","flower_pos","Y","8/10/2015","16:34",344,"M","35","English"
"486","A15Y215D57OSO5",1,1,128,"flower_inhib","flower_inhib","flower_pos","inhibition","inhib","target","distractor","L","flower_inhib","Y","8/10/2015","16:34",657,"M","35","English"
"487","A15Y215D57OSO5",1,1,129,"apple_pos","apple_inhib","apple_pos","inhibition","control","distractor","target","R","apple_pos","Y","8/10/2015","16:34",748,"M","35","English"
"488","A15Y215D57OSO5",1,1,130,"apple_pos","apple_pos","apple_inhib","inhibition","control","target","distractor","L","apple_pos","Y","8/10/2015","16:34",723,"M","35","English"
"489","A15Y215D57OSO5",1,1,131,"apple_pos","apple_pos","apple_inhib","inhibition","control","target","distractor","L","apple_pos","Y","8/10/2015","16:34",7,"M","35","English"
"490","A15Y215D57OSO5",1,1,132,"apple_pos","apple_inhib","apple_pos","inhibition","control","distractor","target","R","apple_pos","Y","8/10/2015","16:34",816,"M","35","English"
"491","A15Y215D57OSO5",1,1,133,"apple_pos","apple_pos","apple_inhib","inhibition","control","target","distractor","L","apple_pos","Y","8/10/2015","16:34",497,"M","35","English"
"492","A15Y215D57OSO5",1,1,134,"apple_pos","apple_pos","apple_inhib","inhibition","control","target","distractor","L","apple_pos","Y","8/10/2015","16:34",406,"M","35","English"
"493","A15Y215D57OSO5",1,1,135,"apple_inhib","apple_pos","apple_inhib","inhibition","inhib","distractor","target","R","apple_inhib","Y","8/10/2015","16:34",615,"M","35","English"
"494","A15Y215D57OSO5",1,1,136,"dog_pos","dog_inhib","dog_pos","inhibition","control","distractor","target","R","dog_pos","Y","8/10/2015","16:34",661,"M","35","English"
"495","A15Y215D57OSO5",1,1,137,"dog_pos","dog_pos","dog_inhib","inhibition","control","target","distractor","L","dog_pos","Y","8/10/2015","16:34",586,"M","35","English"
"496","A15Y215D57OSO5",1,1,138,"dog_pos","dog_pos","dog_inhib","inhibition","control","target","distractor","L","dog_pos","Y","8/10/2015","16:34",446,"M","35","English"
"497","A15Y215D57OSO5",1,1,139,"dog_pos","dog_inhib","dog_pos","inhibition","control","distractor","target","R","dog_pos","Y","8/10/2015","16:34",656,"M","35","English"
"498","A15Y215D57OSO5",1,1,140,"dog_pos","dog_inhib","dog_pos","inhibition","control","distractor","target","R","dog_pos","Y","8/10/2015","16:34",367,"M","35","English"
"499","A15Y215D57OSO5",1,1,141,"dog_inhib","dog_pos","dog_inhib","inhibition","inhib","distractor","target","R","dog_inhib","Y","8/10/2015","16:34",604,"M","35","English"
"500","A15Y215D57OSO5",1,1,142,"bird_pos","bird_pos","bird_inhib","inhibition","control","target","distractor","L","bird_pos","Y","8/10/2015","16:34",656,"M","35","English"
"501","A15Y215D57OSO5",1,1,143,"bird_pos","bird_inhib","bird_pos","inhibition","control","distractor","target","R","bird_pos","Y","8/10/2015","16:34",601,"M","35","English"
"502","A15Y215D57OSO5",1,1,144,"bird_pos","bird_pos","bird_inhib","inhibition","control","target","distractor","L","bird_pos","Y","8/10/2015","16:34",664,"M","35","English"
"503","A15Y215D57OSO5",1,1,145,"bird_pos","bird_inhib","bird_pos","inhibition","control","distractor","target","R","bird_pos","Y","8/10/2015","16:34",425,"M","35","English"
"504","A15Y215D57OSO5",1,1,148,"car_pos","car_pos","car_inhib","inhibition","control","target","distractor","L","car_pos","Y","8/10/2015","16:34",621,"M","35","English"
"505","A15Y215D57OSO5",1,1,146,"bird_pos","bird_inhib","bird_pos","inhibition","control","distractor","target","R","bird_pos","Y","8/10/2015","16:34",437,"M","35","English"
"506","A15Y215D57OSO5",1,1,147,"bird_inhib","bird_inhib","bird_pos","inhibition","inhib","target","distractor","L","bird_inhib","Y","8/10/2015","16:34",625,"M","35","English"
"507","A15Y215D57OSO5",1,1,149,"car_pos","car_inhib","car_pos","inhibition","control","distractor","target","R","car_pos","Y","8/10/2015","16:34",548,"M","35","English"
"508","A15Y215D57OSO5",1,1,150,"car_pos","car_pos","car_inhib","inhibition","control","target","distractor","L","car_pos","Y","8/10/2015","16:34",587,"M","35","English"
"509","A15Y215D57OSO5",1,1,151,"car_pos","car_inhib","car_pos","inhibition","control","distractor","target","R","car_pos","Y","8/10/2015","16:34",535,"M","35","English"
"510","A15Y215D57OSO5",1,1,152,"car_pos","car_inhib","car_pos","inhibition","control","distractor","target","R","car_pos","Y","8/10/2015","16:34",446,"M","35","English"
"511","A15Y215D57OSO5",1,1,153,"car_pos","car_pos","car_inhib","inhibition","control","target","distractor","L","car_pos","Y","8/10/2015","16:34",426,"M","35","English"
"512","A15Y215D57OSO5",1,1,154,"car_inhib","car_inhib","car_pos","inhibition","inhib","target","distractor","L","car_inhib","Y","8/10/2015","16:34",645,"M","35","English"
"513","A15Y215D57OSO5",1,1,1,"dog_neg","dog_pos","dog_neg","negimp","negative","distractor","target","R","dog_neg","Y","8/10/2015","16:34",1413,"M","35","English"
"514","A15Y215D57OSO5",1,1,2,"cat_pos","cat_pos","cat_neg","negimp","positive","target","distractor","L","cat_pos","Y","8/10/2015","16:34",798,"M","35","English"
"515","A15Y215D57OSO5",1,1,3,"teddybear_implic","teddybear_implic","teddybear_control","negimp","implicature","target","distractor","L","teddybear_implic","Y","8/10/2015","16:34",797,"M","35","English"
"516","A15Y215D57OSO5",1,1,4,"cookie_implic","cookie_control","cookie_implic","negimp","implicature","distractor","target","R","cookie_implic","Y","8/10/2015","16:34",893,"M","35","English"
"517","A15Y215D57OSO5",1,1,5,"car_control","car_foil","car_control","negimp","unambiguous","distractor","target","R","car_control","Y","8/10/2015","16:34",858,"M","35","English"
"518","A15Y215D57OSO5",1,1,6,"cup_control","cup_foil","cup_control","negimp","unambiguous","distractor","target","R","cup_control","Y","8/10/2015","16:34",869,"M","35","English"
"519","A15Y215D57OSO5",1,1,7,"bicycle_implic","bicycle_implic","bicycle_control","negimp","implicature","target","distractor","L","bicycle_implic","Y","8/10/2015","16:34",1290,"M","35","English"
"520","A15Y215D57OSO5",1,1,8,"lamp_pos","lamp_pos","lamp_neg","negimp","positive","target","distractor","L","lamp_pos","Y","8/10/2015","16:34",724,"M","35","English"
"521","A15Y215D57OSO5",1,1,9,"apple_pos","apple_pos","apple_neg","negimp","positive","target","distractor","L","apple_pos","Y","8/10/2015","16:34",915,"M","35","English"
"522","A15Y215D57OSO5",1,1,10,"bird_control","bird_control","bird_foil","negimp","unambiguous","target","distractor","L","bird_control","Y","8/10/2015","16:34",1057,"M","35","English"
"523","A15Y215D57OSO5",1,1,11,"flower_pos","flower_pos","flower_neg","negimp","positive","target","distractor","L","flower_pos","Y","8/10/2015","16:34",629,"M","35","English"
"524","A15Y215D57OSO5",1,1,12,"banana_control","banana_control","banana_foil","negimp","unambiguous","target","distractor","L","banana_control","Y","8/10/2015","16:34",930,"M","35","English"
"525","A15Y215D57OSO5",1,1,13,"flower_neg","flower_neg","flower_pos","negimp","negative","target","distractor","L","flower_neg","Y","8/10/2015","16:34",862,"M","35","English"
"526","A15Y215D57OSO5",1,1,15,"cookie_control","cookie_foil","cookie_control","negimp","unambiguous","distractor","target","R","cookie_control","Y","8/10/2015","16:34",1016,"M","35","English"
"527","A15Y215D57OSO5",1,1,16,"cat_implic","cat_implic","cat_control","negimp","implicature","target","distractor","L","cat_implic","Y","8/10/2015","16:34",792,"M","35","English"
"528","A15Y215D57OSO5",1,1,14,"bicycle_control","bicycle_foil","bicycle_control","negimp","unambiguous","distractor","target","R","bicycle_control","Y","8/10/2015","16:34",933,"M","35","English"
"529","A15Y215D57OSO5",1,1,17,"lamp_control","lamp_control","lamp_foil","negimp","unambiguous","target","distractor","L","lamp_control","Y","8/10/2015","16:34",1183,"M","35","English"
"530","A15Y215D57OSO5",1,1,18,"apple_implic","apple_implic","apple_control","negimp","implicature","target","distractor","L","apple_implic","Y","8/10/2015","16:34",668,"M","35","English"
"531","A15Y215D57OSO5",1,1,19,"bird_control","bird_control","bird_foil","negimp","unambiguous","target","distractor","L","bird_control","Y","8/10/2015","16:34",1061,"M","35","English"
"532","A15Y215D57OSO5",1,1,20,"cup_pos","cup_neg","cup_pos","negimp","positive","distractor","target","R","cup_pos","Y","8/10/2015","16:34",918,"M","35","English"
"533","A15Y215D57OSO5",1,1,21,"teddybear_neg","teddybear_neg","teddybear_pos","negimp","negative","target","distractor","L","teddybear_neg","Y","8/10/2015","16:34",939.999999999998,"M","35","English"
"534","A15Y215D57OSO5",1,1,22,"dog_neg","dog_neg","dog_pos","negimp","negative","target","distractor","L","dog_neg","Y","8/10/2015","16:34",1169,"M","35","English"
"535","A15Y215D57OSO5",1,1,23,"banana_implic","banana_control","banana_implic","negimp","implicature","distractor","target","R","banana_implic","Y","8/10/2015","16:34",1131,"M","35","English"
"536","A15Y215D57OSO5",1,1,24,"car_pos","car_pos","car_neg","negimp","positive","target","distractor","L","car_pos","Y","8/10/2015","16:34",752,"M","35","English"
"537","A15Y215D57OSO5",1,1,25,"car_control","car_control","car_foil","negimp","unambiguous","target","distractor","L","car_control","Y","8/10/2015","16:34",788,"M","35","English"
"538","A15Y215D57OSO5",1,1,26,"banana_neg","banana_neg","banana_pos","negimp","negative","target","distractor","L","banana_neg","Y","8/10/2015","16:34",952.000000000001,"M","35","English"
"539","A15Y215D57OSO5",1,1,27,"cat_pos","cat_neg","cat_pos","negimp","positive","distractor","target","R","cat_pos","Y","8/10/2015","16:34",1005,"M","35","English"
"540","A15Y215D57OSO5",1,1,28,"bird_control","bird_foil","bird_control","negimp","unambiguous","distractor","target","R","bird_control","Y","8/10/2015","16:34",859,"M","35","English"
"541","A15Y215D57OSO5",1,1,29,"teddybear_implic","teddybear_implic","teddybear_control","negimp","implicature","target","distractor","L","teddybear_implic","Y","8/10/2015","16:34",838,"M","35","English"
"542","A15Y215D57OSO5",1,1,30,"cookie_neg","cookie_neg","cookie_pos","negimp","negative","target","distractor","L","cookie_neg","Y","8/10/2015","16:34",890,"M","35","English"
"543","A15Y215D57OSO5",1,1,32,"cup_pos","cup_pos","cup_neg","negimp","positive","target","distractor","L","cup_pos","Y","8/10/2015","16:34",683,"M","35","English"
"544","A15Y215D57OSO5",1,1,33,"dog_implic","dog_control","dog_implic","negimp","implicature","distractor","target","R","dog_implic","Y","8/10/2015","16:34",758,"M","35","English"
"545","A15Y215D57OSO5",1,1,31,"apple_implic","apple_implic","apple_control","negimp","implicature","target","distractor","L","apple_implic","Y","8/10/2015","16:34",961,"M","35","English"
"546","A15Y215D57OSO5",1,1,34,"bicycle_neg","bicycle_pos","bicycle_neg","negimp","negative","distractor","target","R","bicycle_neg","Y","8/10/2015","16:34",826.000000000001,"M","35","English"
"547","A15Y215D57OSO5",1,1,35,"flower_neg","flower_pos","flower_neg","negimp","negative","distractor","target","R","flower_neg","Y","8/10/2015","16:34",655,"M","35","English"
"548","A15Y215D57OSO5",1,1,36,"lamp_neg","lamp_pos","lamp_neg","negimp","negative","distractor","target","R","lamp_neg","Y","8/10/2015","16:34",846.999999999997,"M","35","English"
"549","A15Y215D57OSO5",1,1,38,"flower_neg","flower_neg","flower_pos","negimp","negative","target","distractor","L","flower_neg","Y","8/10/2015","16:34",697,"M","35","English"
"550","A15Y215D57OSO5",1,1,37,"teddybear_control","teddybear_control","teddybear_foil","negimp","unambiguous","target","distractor","L","teddybear_control","Y","8/10/2015","16:34",887,"M","35","English"
"551","A15Y215D57OSO5",1,1,40,"car_pos","car_neg","car_pos","negimp","positive","distractor","target","R","car_pos","Y","8/10/2015","16:34",668,"M","35","English"
"552","A15Y215D57OSO5",1,1,41,"lamp_control","lamp_foil","lamp_control","negimp","unambiguous","distractor","target","R","lamp_control","Y","8/10/2015","16:34",835,"M","35","English"
"553","A15Y215D57OSO5",1,1,39,"cat_implic","cat_control","cat_implic","negimp","implicature","distractor","target","R","cat_implic","Y","8/10/2015","16:34",891,"M","35","English"
"554","A15Y215D57OSO5",1,1,42,"cup_neg","cup_neg","cup_pos","negimp","negative","target","distractor","L","cup_neg","Y","8/10/2015","16:34",1566,"M","35","English"
"555","A15Y215D57OSO5",1,1,43,"bicycle_pos","bicycle_neg","bicycle_pos","negimp","positive","distractor","target","R","bicycle_pos","Y","8/10/2015","16:34",751,"M","35","English"
"556","A15Y215D57OSO5",1,1,44,"bird_implic","bird_implic","bird_control","negimp","implicature","target","distractor","L","bird_implic","Y","8/10/2015","16:34",799,"M","35","English"
"557","A15Y215D57OSO5",1,1,46,"banana_control","banana_control","banana_foil","negimp","unambiguous","target","distractor","L","banana_control","Y","8/10/2015","16:34",800,"M","35","English"
"558","A15Y215D57OSO5",1,1,45,"dog_control","dog_foil","dog_control","negimp","unambiguous","distractor","target","R","dog_control","Y","8/10/2015","16:34",736,"M","35","English"
"559","A15Y215D57OSO5",1,1,47,"cookie_control","cookie_foil","cookie_control","negimp","unambiguous","distractor","target","R","cookie_control","Y","8/10/2015","16:34",766,"M","35","English"
