"","subid","list","game.order","trial.num","word","leftpic","rightpic","game","trial.type","leftpic.type","rightpic.type","side.chosen","pic.chosen","response","date","timestamp","rt","age","agegroup","gender"
"1","072715-01",1,6,1,"dog_pos","dog_pos","dog_neg","negation","positive","target","distractor","L","dog_pos","Y","7/27/2015","9:22",3665,4.29,4,"F"
"2","072715-01",1,6,2,"cat_neg","cat_neg","cat_pos","negation","negative","target","distractor","R","cat_pos","N","7/27/2015","9:22",2313,4.29,4,"F"
"3","072715-01",1,6,3,"teddybear_pos","teddybear_neg","teddybear_pos","negation","positive","distractor","target","R","teddybear_pos","Y","7/27/2015","9:22",1804,4.29,4,"F"
"4","072715-01",1,6,4,"cookie_pos","cookie_pos","cookie_neg","negation","positive","target","distractor","L","cookie_pos","Y","7/27/2015","9:22",1576,4.29,4,"F"
"5","072715-01",1,6,9,"apple_neg","apple_neg","apple_pos","negation","negative","target","distractor","L","apple_neg","Y","7/27/2015","9:22",2748,4.29,4,"F"
"6","072715-01",1,6,10,"bird_pos","bird_pos","bird_neg","negation","positive","target","distractor","L","bird_pos","Y","7/27/2015","9:22",1919,4.29,4,"F"
"7","072715-01",1,6,11,"flower_neg","flower_neg","flower_pos","negation","negative","target","distractor","L","flower_neg","Y","7/27/2015","9:22",1813,4.29,4,"F"
"8","072715-01",1,6,12,"banana_pos","banana_neg","banana_pos","negation","positive","distractor","target","R","banana_pos","Y","7/27/2015","9:22",1359,4.29,4,"F"
"9","072715-01",1,6,13,"flower_pos","flower_pos","flower_neg","negation","positive","target","distractor","L","flower_pos","Y","7/27/2015","9:22",1546,4.29,4,"F"
"10","072715-01",1,6,14,"bicycle_pos","bicycle_neg","bicycle_pos","negation","positive","distractor","target","R","bicycle_pos","Y","7/27/2015","9:22",1378,4.29,4,"F"
"11","072715-01",1,6,15,"cookie_neg","cookie_neg","cookie_pos","negation","negative","target","distractor","L","cookie_neg","Y","7/27/2015","9:22",2472,4.29,4,"F"
"12","072715-01",1,6,16,"cat_pos","cat_neg","cat_pos","negation","positive","distractor","target","R","cat_pos","Y","7/27/2015","9:22",1527,4.29,4,"F"
"13","072715-01",1,6,17,"lamp_pos","lamp_neg","lamp_pos","negation","positive","distractor","target","R","lamp_pos","Y","7/27/2015","9:22",1250,4.29,4,"F"
"14","072715-01",1,6,18,"apple_pos","apple_pos","apple_neg","negation","positive","target","distractor","L","apple_pos","Y","7/27/2015","9:22",1397,4.29,4,"F"
"15","072715-01",1,6,19,"bird_neg","bird_neg","bird_pos","negation","negative","target","distractor","L","bird_neg","Y","7/27/2015","9:22",1971,4.29,4,"F"
"16","072715-01",1,6,20,"cup_pos","cup_neg","cup_pos","negation","positive","distractor","target","R","cup_pos","Y","7/27/2015","9:22",1433,4.29,4,"F"
"17","072715-01",1,6,21,"teddybear_neg","teddybear_pos","teddybear_neg","negation","negative","distractor","target","R","teddybear_neg","Y","7/27/2015","9:22",1283,4.29,4,"F"
"18","072715-01",1,6,22,"dog_pos","dog_neg","dog_pos","negation","positive","distractor","target","R","dog_pos","Y","7/27/2015","9:22",1428,4.29,4,"F"
"19","072715-01",1,6,23,"banana_pos","banana_pos","banana_neg","negation","positive","target","distractor","L","banana_pos","Y","7/27/2015","9:22",1419,4.29,4,"F"
"20","072715-01",1,6,24,"car_neg","car_pos","car_neg","negation","negative","distractor","target","R","car_neg","Y","7/27/2015","9:22",1285,4.29,4,"F"
"21","072715-01",1,6,25,"car_neg","car_pos","car_neg","negation","negative","distractor","target","R","car_neg","Y","7/27/2015","9:22",1300,4.29,4,"F"
"22","072715-01",1,6,26,"banana_pos","banana_pos","banana_neg","negation","positive","target","distractor","R","banana_neg","N","7/27/2015","9:22",1117,4.29,4,"F"
"23","072715-01",1,6,27,"cat_pos","cat_neg","cat_pos","negation","positive","distractor","target","R","cat_pos","Y","7/27/2015","9:22",1416,4.29,4,"F"
"24","072715-01",1,6,28,"bird_pos","bird_neg","bird_pos","negation","positive","distractor","target","R","bird_pos","Y","7/27/2015","9:22",1766,4.29,4,"F"
"25","072715-01",1,6,29,"teddybear_neg","teddybear_pos","teddybear_neg","negation","negative","distractor","target","R","teddybear_neg","Y","7/27/2015","9:22",1494,4.29,4,"F"
"26","072715-01",1,6,30,"cookie_pos","cookie_pos","cookie_neg","negation","positive","target","distractor","L","cookie_pos","Y","7/27/2015","9:22",2231,4.29,4,"F"
"27","072715-01",1,6,31,"apple_neg","apple_neg","apple_pos","negation","negative","target","distractor","L","apple_neg","Y","7/27/2015","9:22",1676,4.29,4,"F"
"28","072715-01",1,6,32,"cup_pos","cup_neg","cup_pos","negation","positive","distractor","target","R","cup_pos","Y","7/27/2015","9:22",1546,4.29,4,"F"
"29","072715-01",1,6,33,"dog_pos","dog_neg","dog_pos","negation","positive","distractor","target","R","dog_pos","Y","7/27/2015","9:22",1637,4.29,4,"F"
"30","072715-01",1,6,34,"bicycle_neg","bicycle_pos","bicycle_neg","negation","negative","distractor","target","L","bicycle_pos","N","7/27/2015","9:22",1544,4.29,4,"F"
"31","072715-01",1,6,35,"flower_pos","flower_pos","flower_neg","negation","positive","target","distractor","R","flower_neg","N","7/27/2015","9:22",1523,4.29,4,"F"
"32","072715-01",1,6,36,"lamp_neg","lamp_neg","lamp_pos","negation","negative","target","distractor","L","lamp_neg","Y","7/27/2015","9:22",1527,4.29,4,"F"
"33","072715-01",1,6,37,"teddybear_pos","teddybear_pos","teddybear_neg","negation","positive","target","distractor","L","teddybear_pos","Y","7/27/2015","9:22",2339,4.29,4,"F"
"34","072715-01",1,6,38,"flower_neg","flower_neg","flower_pos","negation","negative","target","distractor","L","flower_neg","Y","7/27/2015","9:22",2200,4.29,4,"F"
"35","072715-01",1,6,39,"cat_neg","cat_pos","cat_neg","negation","negative","distractor","target","R","cat_neg","Y","7/27/2015","9:22",1797,4.29,4,"F"
"36","072715-01",1,6,40,"car_neg","car_pos","car_neg","negation","negative","distractor","target","R","car_neg","Y","7/27/2015","9:22",1433,4.29,4,"F"
"37","072715-01",1,6,41,"lamp_pos","lamp_pos","lamp_neg","negation","positive","target","distractor","L","lamp_pos","Y","7/27/2015","9:22",1593,4.29,4,"F"
"38","072715-01",1,6,42,"cup_neg","cup_neg","cup_pos","negation","negative","target","distractor","L","cup_neg","Y","7/27/2015","9:22",1542,4.29,4,"F"
"39","072715-01",1,6,43,"bicycle_neg","bicycle_pos","bicycle_neg","negation","negative","distractor","target","R","bicycle_neg","Y","7/27/2015","9:22",1443,4.29,4,"F"
"40","072715-01",1,6,44,"bird_pos","bird_pos","bird_neg","negation","positive","target","distractor","L","bird_pos","Y","7/27/2015","9:22",2049,4.29,4,"F"
"41","072715-01",1,6,5,"car_pos","car_pos","car_neg","negation","positive","target","distractor","L","car_pos","Y","7/27/2015","9:22",1464,4.29,4,"F"
"42","072715-01",1,6,6,"cup_neg","cup_neg","cup_pos","negation","negative","target","distractor","R","cup_pos","N","7/27/2015","9:22",2682,4.29,4,"F"
"43","072715-01",1,6,7,"bicycle_neg","bicycle_pos","bicycle_neg","negation","negative","distractor","target","R","bicycle_neg","Y","7/27/2015","9:22",5675,4.29,4,"F"
"44","072715-01",1,6,8,"lamp_neg","lamp_pos","lamp_neg","negation","negative","distractor","target","R","lamp_neg","Y","7/27/2015","9:22",2090,4.29,4,"F"
"45","072715-01",1,6,49,"cup_neg","cup_neg","cup_pos","negation","negative","target","distractor","L","cup_neg","Y","7/27/2015","9:22",2445,4.29,4,"F"
"46","072715-01",1,6,50,"teddybear_pos","teddybear_pos","teddybear_neg","negation","positive","target","distractor","L","teddybear_pos","Y","7/27/2015","9:22",1552,4.29,4,"F"
"47","072715-01",1,6,51,"car_pos","car_neg","car_pos","negation","positive","distractor","target","R","car_pos","Y","7/27/2015","9:22",1979,4.29,4,"F"
"48","072715-01",1,6,52,"apple_pos","apple_pos","apple_neg","negation","positive","target","distractor","L","apple_pos","Y","7/27/2015","9:22",1923,4.29,4,"F"
"49","072715-01",1,6,53,"dog_neg","dog_pos","dog_neg","negation","negative","distractor","target","R","dog_neg","Y","7/27/2015","9:22",2979,4.29,4,"F"
"50","072715-01",1,6,54,"banana_pos","banana_pos","banana_neg","negation","positive","target","distractor","L","banana_pos","Y","7/27/2015","9:22",2380,4.29,4,"F"
"51","072715-01",1,6,55,"bird_neg","bird_neg","bird_pos","negation","negative","target","distractor","R","bird_pos","N","7/27/2015","9:22",1353,4.29,4,"F"
"52","072715-01",1,6,56,"lamp_pos","lamp_pos","lamp_neg","negation","positive","target","distractor","L","lamp_pos","Y","7/27/2015","9:22",1765,4.29,4,"F"
"53","072715-01",1,6,57,"bicycle_neg","bicycle_neg","bicycle_pos","negation","negative","target","distractor","L","bicycle_neg","Y","7/27/2015","9:22",2256,4.29,4,"F"
"54","072715-01",1,6,58,"cat_neg","cat_pos","cat_neg","negation","negative","distractor","target","R","cat_neg","Y","7/27/2015","9:22",4199,4.29,4,"F"
"55","072715-01",1,6,59,"flower_pos","flower_pos","flower_neg","negation","positive","target","distractor","L","flower_pos","Y","7/27/2015","9:22",2885,4.29,4,"F"
"56","072715-01",1,6,60,"cookie_neg","cookie_pos","cookie_neg","negation","negative","distractor","target","R","cookie_neg","Y","7/27/2015","9:22",1902,4.29,4,"F"
"57","072715-01",1,6,1,"banana_control","banana_control","banana_foil","implicature","unambiguous","target","distractor","L","banana_control","Y","7/27/2015","9:22",3326,4.29,4,"F"
"58","072715-01",1,6,2,"cup_implic","cup_implic","cup_control","implicature","implicature","target","distractor","R","cup_control","N","7/27/2015","9:22",3658,4.29,4,"F"
"59","072715-01",1,6,3,"apple_implic","apple_control","apple_implic","implicature","implicature","distractor","target","L","apple_control","N","7/27/2015","9:22",2377,4.29,4,"F"
"60","072715-01",1,6,4,"cat_implic","cat_implic","cat_control","implicature","implicature","target","distractor","R","cat_control","N","7/27/2015","9:22",2529,4.29,4,"F"
"61","072715-01",1,6,5,"cookie_control","cookie_control","cookie_foil","implicature","unambiguous","target","distractor","L","cookie_control","Y","7/27/2015","9:22",2097,4.29,4,"F"
"62","072715-01",1,6,6,"teddybear_implic","teddybear_control","teddybear_implic","implicature","implicature","distractor","target","R","teddybear_implic","Y","7/27/2015","9:22",1953,4.29,4,"F"
"63","072715-01",1,6,7,"dog_control","dog_foil","dog_control","implicature","unambiguous","distractor","target","R","dog_control","Y","7/27/2015","9:22",3044,4.29,4,"F"
"64","072715-01",1,6,8,"bicycle_control","bicycle_foil","bicycle_control","implicature","unambiguous","distractor","target","R","bicycle_control","Y","7/27/2015","9:22",2419,4.29,4,"F"
"65","072715-01",1,6,9,"lamp_control","lamp_foil","lamp_control","implicature","unambiguous","distractor","target","R","lamp_control","Y","7/27/2015","9:22",2636,4.29,4,"F"
"66","072715-01",1,6,10,"car_implic","car_control","car_implic","implicature","implicature","distractor","target","L","car_control","N","7/27/2015","9:22",3134,4.29,4,"F"
"67","072715-01",1,6,11,"flower_implic","flower_control","flower_implic","implicature","implicature","distractor","target","R","flower_implic","Y","7/27/2015","9:22",4419,4.29,4,"F"
"68","072715-01",1,6,12,"bird_control","bird_control","bird_foil","implicature","unambiguous","target","distractor","L","bird_control","Y","7/27/2015","9:22",3861,4.29,4,"F"
"69","072715-01",1,6,13,"bicycle_control","bicycle_foil","bicycle_control","implicature","unambiguous","distractor","target","R","bicycle_control","Y","7/27/2015","9:22",2548,4.29,4,"F"
"70","072715-01",1,6,14,"dog_implic","dog_control","dog_implic","implicature","implicature","distractor","target","R","dog_implic","Y","7/27/2015","9:22",3658,4.29,4,"F"
"71","072715-01",1,6,15,"flower_control","flower_foil","flower_control","implicature","unambiguous","distractor","target","R","flower_control","Y","7/27/2015","9:22",2747,4.29,4,"F"
"72","072715-01",1,6,16,"bird_implic","bird_control","bird_implic","implicature","implicature","distractor","target","R","bird_implic","Y","7/27/2015","9:22",1636,4.29,4,"F"
"73","072715-01",1,6,17,"cat_implic","cat_control","cat_implic","implicature","implicature","distractor","target","R","cat_implic","Y","7/27/2015","9:22",2058,4.29,4,"F"
"74","072715-01",1,6,18,"cookie_implic","cookie_control","cookie_implic","implicature","implicature","distractor","target","R","cookie_implic","Y","7/27/2015","9:22",1965,4.29,4,"F"
"75","072715-01",1,6,19,"apple_control","apple_foil","apple_control","implicature","unambiguous","distractor","target","R","apple_control","Y","7/27/2015","9:22",2158,4.29,4,"F"
"76","072715-01",1,6,20,"lamp_control","lamp_foil","lamp_control","implicature","unambiguous","distractor","target","R","lamp_control","Y","7/27/2015","9:22",1982,4.29,4,"F"
"77","072715-01",1,6,21,"banana_control","banana_foil","banana_control","implicature","unambiguous","distractor","target","R","banana_control","Y","7/27/2015","9:22",2999,4.29,4,"F"
"78","072715-01",1,6,22,"car_implic","car_control","car_implic","implicature","implicature","distractor","target","R","car_implic","Y","7/27/2015","9:22",2273,4.29,4,"F"
"79","072715-01",1,6,23,"cup_implic","cup_control","cup_implic","implicature","implicature","distractor","target","L","cup_control","N","7/27/2015","9:22",2496,4.29,4,"F"
"80","072715-01",1,6,24,"teddybear_control","teddybear_foil","teddybear_control","implicature","unambiguous","distractor","target","R","teddybear_control","Y","7/27/2015","9:22",2697,4.29,4,"F"
"81","072715-01",1,6,45,"dog_neg","dog_pos","dog_neg","negation","negative","distractor","target","R","dog_neg","Y","7/27/2015","9:22",2219,4.29,4,"F"
"82","072715-01",1,6,46,"banana_neg","banana_pos","banana_neg","negation","negative","distractor","target","R","banana_neg","Y","7/27/2015","9:22",2294,4.29,4,"F"
"83","072715-01",1,6,47,"cookie_neg","cookie_neg","cookie_pos","negation","negative","target","distractor","L","cookie_neg","Y","7/27/2015","9:22",1752,4.29,4,"F"
"84","072715-01",1,6,48,"apple_neg","apple_neg","apple_pos","negation","negative","target","distractor","L","apple_neg","Y","7/27/2015","9:22",2343,4.29,4,"F"
"85","072715-01",1,6,29,"flower_implic","flower_control","flower_implic","implicature","implicature","distractor","target","R","flower_implic","Y","7/27/2015","9:22",1636,4.29,4,"F"
"86","072715-01",1,6,30,"teddybear_implic","teddybear_control","teddybear_implic","implicature","implicature","distractor","target","R","teddybear_implic","Y","7/27/2015","9:22",1735,4.29,4,"F"
"87","072715-01",1,6,31,"bicycle_control","bicycle_foil","bicycle_control","implicature","unambiguous","distractor","target","R","bicycle_control","Y","7/27/2015","9:22",1467,4.29,4,"F"
"88","072715-01",1,6,32,"cup_implic","cup_implic","cup_control","implicature","implicature","target","distractor","R","cup_control","N","7/27/2015","9:22",2260,4.29,4,"F"
"89","072715-01",1,6,33,"car_control","car_foil","car_control","implicature","unambiguous","distractor","target","R","car_control","Y","7/27/2015","9:22",2211,4.29,4,"F"
"90","072715-01",1,6,34,"cookie_implic","cookie_implic","cookie_control","implicature","implicature","target","distractor","R","cookie_control","N","7/27/2015","9:22",2885,4.29,4,"F"
"91","072715-01",1,6,35,"lamp_control","lamp_foil","lamp_control","implicature","unambiguous","distractor","target","R","lamp_control","Y","7/27/2015","9:22",2706,4.29,4,"F"
"92","072715-01",1,6,36,"dog_implic","dog_control","dog_implic","implicature","implicature","distractor","target","R","dog_implic","Y","7/27/2015","9:22",2606,4.29,4,"F"
"93","072715-01",1,6,38,"bird_implic","bird_implic","bird_control","implicature","implicature","target","distractor","L","bird_implic","Y","7/27/2015","9:22",1885,4.29,4,"F"
"94","072715-01",1,6,39,"banana_implic","banana_control","banana_implic","implicature","implicature","distractor","target","L","banana_control","N","7/27/2015","9:22",1884,4.29,4,"F"
"95","072715-01",1,6,37,"cookie_control","cookie_control","cookie_foil","implicature","unambiguous","target","distractor","L","cookie_control","Y","7/27/2015","9:22",2300,4.29,4,"F"
"96","072715-01",1,6,40,"lamp_control","lamp_foil","lamp_control","implicature","unambiguous","distractor","target","R","lamp_control","Y","7/27/2015","9:22",1793,4.29,4,"F"
"97","072715-01",1,6,41,"car_control","car_control","car_foil","implicature","unambiguous","target","distractor","L","car_control","Y","7/27/2015","9:22",2251,4.29,4,"F"
"98","072715-01",1,6,42,"cat_implic","cat_implic","cat_control","implicature","implicature","target","distractor","R","cat_control","N","7/27/2015","9:22",2281,4.29,4,"F"
"99","072715-01",1,6,43,"flower_control","flower_control","flower_foil","implicature","unambiguous","target","distractor","L","flower_control","Y","7/27/2015","9:22",2380,4.29,4,"F"
"100","072715-01",1,6,44,"bicycle_implic","bicycle_control","bicycle_implic","implicature","implicature","distractor","target","R","bicycle_implic","Y","7/27/2015","9:22",2032,4.29,4,"F"
"101","072715-01",1,6,45,"teddybear_implic","teddybear_control","teddybear_implic","implicature","implicature","distractor","target","R","teddybear_implic","Y","7/27/2015","9:22",2210,4.29,4,"F"
"102","072715-01",1,6,46,"cup_implic","cup_implic","cup_control","implicature","implicature","target","distractor","R","cup_control","N","7/27/2015","9:22",1903,4.29,4,"F"
"103","072715-01",1,6,47,"dog_control","dog_foil","dog_control","implicature","unambiguous","distractor","target","R","dog_control","Y","7/27/2015","9:22",2895,4.29,4,"F"
"104","072715-01",1,6,48,"apple_control","apple_foil","apple_control","implicature","unambiguous","distractor","target","R","apple_control","Y","7/27/2015","9:22",2427,4.29,4,"F"
"105","072715-01",1,6,49,"lamp_control","lamp_foil","lamp_control","implicature","unambiguous","distractor","target","R","lamp_control","Y","7/27/2015","9:22",2519,4.29,4,"F"
"106","072715-01",1,6,50,"car_control","car_control","car_foil","implicature","unambiguous","target","distractor","L","car_control","Y","7/27/2015","9:22",1943,4.29,4,"F"
"107","072715-01",1,6,51,"flower_control","flower_control","flower_foil","implicature","unambiguous","target","distractor","L","flower_control","Y","7/27/2015","9:22",2102,4.29,4,"F"
"108","072715-01",1,6,52,"banana_control","banana_control","banana_foil","implicature","unambiguous","target","distractor","L","banana_control","Y","7/27/2015","9:22",2180,4.29,4,"F"
"109","072715-01",1,6,53,"cookie_implic","cookie_implic","cookie_control","implicature","implicature","target","distractor","R","cookie_control","N","7/27/2015","9:22",2495,4.29,4,"F"
"110","072715-01",1,6,54,"dog_implic","dog_control","dog_implic","implicature","implicature","distractor","target","R","dog_implic","Y","7/27/2015","9:22",1983,4.29,4,"F"
"111","072715-01",1,6,55,"apple_implic","apple_control","apple_implic","implicature","implicature","distractor","target","L","apple_control","N","7/27/2015","9:22",1983,4.29,4,"F"
"112","072715-01",1,6,56,"bird_control","bird_control","bird_foil","implicature","unambiguous","target","distractor","L","bird_control","Y","7/27/2015","9:22",2182,4.29,4,"F"
"113","072715-01",1,6,57,"teddybear_implic","teddybear_implic","teddybear_control","implicature","implicature","target","distractor","R","teddybear_control","N","7/27/2015","9:22",1953,4.29,4,"F"
"114","072715-01",1,6,58,"cup_implic","cup_implic","cup_control","implicature","implicature","target","distractor","R","cup_control","N","7/27/2015","9:22",2162,4.29,4,"F"
"115","072715-01",1,6,59,"bicycle_control","bicycle_foil","bicycle_control","implicature","unambiguous","distractor","target","R","bicycle_control","Y","7/27/2015","9:22",2485,4.29,4,"F"
"116","072715-01",1,6,60,"cat_control","cat_foil","cat_control","implicature","unambiguous","distractor","target","R","cat_control","Y","7/27/2015","9:22",2170,4.29,4,"F"
"117","072715-01",1,6,1,"apple_pos","apple_pos","apple_inhib","inhibition","control","target","distractor","L","apple_pos","Y","7/27/2015","9:22",1995,4.29,4,"F"
"118","072715-01",1,6,2,"apple_pos","apple_pos","apple_inhib","inhibition","control","target","distractor","L","apple_pos","Y","7/27/2015","9:22",1310,4.29,4,"F"
"119","072715-01",1,6,3,"apple_pos","apple_inhib","apple_pos","inhibition","control","distractor","target","R","apple_pos","Y","7/27/2015","9:22",1042,4.29,4,"F"
"120","072715-01",1,6,4,"apple_pos","apple_inhib","apple_pos","inhibition","control","distractor","target","R","apple_pos","Y","7/27/2015","9:22",843,4.29,4,"F"
"121","072715-01",1,6,5,"apple_pos","apple_pos","apple_inhib","inhibition","control","target","distractor","L","apple_pos","Y","7/27/2015","9:22",1182,4.29,4,"F"
"122","072715-01",1,6,6,"apple_inhib","apple_pos","apple_inhib","inhibition","inhib","distractor","target","R","apple_inhib","Y","7/27/2015","9:22",1364,4.29,4,"F"
"123","072715-01",1,6,7,"car_pos","car_inhib","car_pos","inhibition","control","distractor","target","R","car_pos","Y","7/27/2015","9:22",1053,4.29,4,"F"
"124","072715-01",1,6,8,"car_pos","car_pos","car_inhib","inhibition","control","target","distractor","L","car_pos","Y","7/27/2015","9:22",1280,4.29,4,"F"
"125","072715-01",1,6,9,"car_pos","car_inhib","car_pos","inhibition","control","distractor","target","R","car_pos","Y","7/27/2015","9:22",839,4.29,4,"F"
"126","072715-01",1,6,10,"car_pos","car_inhib","car_pos","inhibition","control","distractor","target","R","car_pos","Y","7/27/2015","9:22",914,4.29,4,"F"
"127","072715-01",1,6,11,"car_pos","car_inhib","car_pos","inhibition","control","distractor","target","R","car_pos","Y","7/27/2015","9:22",892,4.29,4,"F"
"128","072715-01",1,6,12,"car_inhib","car_pos","car_inhib","inhibition","inhib","distractor","target","R","car_inhib","Y","7/27/2015","9:22",1429,4.29,4,"F"
"129","072715-01",1,6,13,"dog_pos","dog_pos","dog_inhib","inhibition","control","target","distractor","L","dog_pos","Y","7/27/2015","9:22",1357,4.29,4,"F"
"130","072715-01",1,6,14,"dog_pos","dog_pos","dog_inhib","inhibition","control","target","distractor","L","dog_pos","Y","7/27/2015","9:22",1042,4.29,4,"F"
"131","072715-01",1,6,15,"dog_pos","dog_inhib","dog_pos","inhibition","control","distractor","target","R","dog_pos","Y","7/27/2015","9:22",2280,4.29,4,"F"
"132","072715-01",1,6,16,"dog_pos","dog_pos","dog_inhib","inhibition","control","target","distractor","L","dog_pos","Y","7/27/2015","9:22",1092,4.29,4,"F"
"133","072715-01",1,6,17,"dog_pos","dog_pos","dog_inhib","inhibition","control","target","distractor","L","dog_pos","Y","7/27/2015","9:22",1426,4.29,4,"F"
"134","072715-01",1,6,18,"dog_pos","dog_inhib","dog_pos","inhibition","control","distractor","target","R","dog_pos","Y","7/27/2015","9:22",1270,4.29,4,"F"
"135","072715-01",1,6,19,"dog_inhib","dog_inhib","dog_pos","inhibition","inhib","target","distractor","L","dog_inhib","Y","7/27/2015","9:22",1735,4.29,4,"F"
"136","072715-01",1,6,20,"teddybear_pos","teddybear_pos","teddybear_inhib","inhibition","control","target","distractor","L","teddybear_pos","Y","7/27/2015","9:22",1407,4.29,4,"F"
"137","072715-01",1,6,21,"teddybear_pos","teddybear_inhib","teddybear_pos","inhibition","control","distractor","target","R","teddybear_pos","Y","7/27/2015","9:22",1092,4.29,4,"F"
"138","072715-01",1,6,22,"teddybear_pos","teddybear_pos","teddybear_inhib","inhibition","control","target","distractor","L","teddybear_pos","Y","7/27/2015","9:22",1011,4.29,4,"F"
"139","072715-01",1,6,23,"teddybear_pos","teddybear_pos","teddybear_inhib","inhibition","control","target","distractor","L","teddybear_pos","Y","7/27/2015","9:22",1003,4.29,4,"F"
"140","072715-01",1,6,24,"teddybear_pos","teddybear_inhib","teddybear_pos","inhibition","control","distractor","target","R","teddybear_pos","Y","7/27/2015","9:22",1111,4.29,4,"F"
"141","072715-01",1,6,25,"teddybear_pos","teddybear_pos","teddybear_inhib","inhibition","control","target","distractor","L","teddybear_pos","Y","7/27/2015","9:22",1256,4.29,4,"F"
"142","072715-01",1,6,26,"teddybear_inhib","teddybear_pos","teddybear_inhib","inhibition","inhib","distractor","target","R","teddybear_inhib","Y","7/27/2015","9:22",1817,4.29,4,"F"
"143","072715-01",1,6,27,"banana_pos","banana_inhib","banana_pos","inhibition","control","distractor","target","R","banana_pos","Y","7/27/2015","9:22",3708,4.29,4,"F"
"144","072715-01",1,6,28,"banana_pos","banana_inhib","banana_pos","inhibition","control","distractor","target","R","banana_pos","Y","7/27/2015","9:22",2052,4.29,4,"F"
"145","072715-01",1,6,29,"banana_pos","banana_pos","banana_inhib","inhibition","control","target","distractor","L","banana_pos","Y","7/27/2015","9:22",1686,4.29,4,"F"
"146","072715-01",1,6,30,"banana_pos","banana_pos","banana_inhib","inhibition","control","target","distractor","L","banana_pos","Y","7/27/2015","9:22",1388,4.29,4,"F"
"147","072715-01",1,6,31,"banana_pos","banana_pos","banana_inhib","inhibition","control","target","distractor","L","banana_pos","Y","7/27/2015","9:22",1340,4.29,4,"F"
"148","072715-01",1,6,32,"banana_inhib","banana_pos","banana_inhib","inhibition","inhib","distractor","target","R","banana_inhib","Y","7/27/2015","9:22",1487,4.29,4,"F"
"149","072715-01",1,6,33,"bicycle_pos","bicycle_inhib","bicycle_pos","inhibition","control","distractor","target","R","bicycle_pos","Y","7/27/2015","9:22",1398,4.29,4,"F"
"150","072715-01",1,6,34,"bicycle_pos","bicycle_inhib","bicycle_pos","inhibition","control","distractor","target","R","bicycle_pos","Y","7/27/2015","9:22",833,4.29,4,"F"
"151","072715-01",1,6,35,"bicycle_pos","bicycle_inhib","bicycle_pos","inhibition","control","distractor","target","R","bicycle_pos","Y","7/27/2015","9:22",656,4.29,4,"F"
"152","072715-01",1,6,36,"bicycle_pos","bicycle_inhib","bicycle_pos","inhibition","control","distractor","target","R","bicycle_pos","Y","7/27/2015","9:22",695,4.29,4,"F"
"153","072715-01",1,6,37,"bicycle_pos","bicycle_inhib","bicycle_pos","inhibition","control","distractor","target","R","bicycle_pos","Y","7/27/2015","9:22",745,4.29,4,"F"
"154","072715-01",1,6,38,"bicycle_pos","bicycle_inhib","bicycle_pos","inhibition","control","distractor","target","R","bicycle_pos","Y","7/27/2015","9:22",3124,4.29,4,"F"
"155","072715-01",1,6,39,"bicycle_inhib","bicycle_pos","bicycle_inhib","inhibition","inhib","distractor","target","R","bicycle_inhib","Y","7/27/2015","9:22",1802,4.29,4,"F"
"156","072715-01",1,6,40,"cat_pos","cat_inhib","cat_pos","inhibition","control","distractor","target","R","cat_pos","Y","7/27/2015","9:22",1841,4.29,4,"F"
"157","072715-01",1,6,41,"cat_pos","cat_inhib","cat_pos","inhibition","control","distractor","target","R","cat_pos","Y","7/27/2015","9:22",745,4.29,4,"F"
"158","072715-01",1,6,42,"cat_pos","cat_inhib","cat_pos","inhibition","control","distractor","target","R","cat_pos","Y","7/27/2015","9:22",507,4.29,4,"F"
"159","072715-01",1,6,43,"cat_pos","cat_inhib","cat_pos","inhibition","control","distractor","target","R","cat_pos","Y","7/27/2015","9:22",576,4.29,4,"F"
"160","072715-01",1,6,44,"cat_pos","cat_inhib","cat_pos","inhibition","control","distractor","target","R","cat_pos","Y","7/27/2015","9:22",923,4.29,4,"F"
"161","072715-01",1,6,45,"cat_pos","cat_inhib","cat_pos","inhibition","control","distractor","target","R","cat_pos","Y","7/27/2015","9:22",822,4.29,4,"F"
"162","072715-01",1,6,46,"cat_inhib","cat_inhib","cat_pos","inhibition","inhib","target","distractor","L","cat_inhib","Y","7/27/2015","9:22",1825,4.29,4,"F"
"163","072715-01",1,6,47,"flower_pos","flower_inhib","flower_pos","inhibition","control","distractor","target","R","flower_pos","Y","7/27/2015","9:22",1347,4.29,4,"F"
"164","072715-01",1,6,48,"flower_pos","flower_pos","flower_inhib","inhibition","control","target","distractor","L","flower_pos","Y","7/27/2015","9:22",1160,4.29,4,"F"
"165","072715-01",1,6,49,"flower_pos","flower_pos","flower_inhib","inhibition","control","target","distractor","L","flower_pos","Y","7/27/2015","9:22",1467,4.29,4,"F"
"166","072715-01",1,6,50,"flower_pos","flower_inhib","flower_pos","inhibition","control","distractor","target","R","flower_pos","Y","7/27/2015","9:22",1419,4.29,4,"F"
"167","072715-01",1,6,51,"flower_pos","flower_pos","flower_inhib","inhibition","control","target","distractor","L","flower_pos","Y","7/27/2015","9:22",1378,4.29,4,"F"
"168","072715-01",1,6,52,"flower_inhib","flower_inhib","flower_pos","inhibition","inhib","target","distractor","L","flower_inhib","Y","7/27/2015","9:22",2092,4.29,4,"F"
"169","072715-01",1,6,53,"cookie_pos","cookie_inhib","cookie_pos","inhibition","control","distractor","target","R","cookie_pos","Y","7/27/2015","9:22",1503,4.29,4,"F"
"170","072715-01",1,6,54,"cookie_pos","cookie_inhib","cookie_pos","inhibition","control","distractor","target","R","cookie_pos","Y","7/27/2015","9:22",978,4.29,4,"F"
"171","072715-01",1,6,55,"cookie_pos","cookie_inhib","cookie_pos","inhibition","control","distractor","target","R","cookie_pos","Y","7/27/2015","9:22",1270,4.29,4,"F"
"172","072715-01",1,6,56,"cookie_pos","cookie_pos","cookie_inhib","inhibition","control","target","distractor","L","cookie_pos","Y","7/27/2015","9:22",1549,4.29,4,"F"
"173","072715-01",1,6,57,"cookie_pos","cookie_inhib","cookie_pos","inhibition","control","distractor","target","R","cookie_pos","Y","7/27/2015","9:22",1121,4.29,4,"F"
"174","072715-01",1,6,58,"cookie_pos","cookie_inhib","cookie_pos","inhibition","control","distractor","target","R","cookie_pos","Y","7/27/2015","9:22",1252,4.29,4,"F"
"175","072715-01",1,6,59,"cookie_inhib","cookie_inhib","cookie_pos","inhibition","inhib","target","distractor","L","cookie_inhib","Y","7/27/2015","9:22",1645,4.29,4,"F"
"176","072715-01",1,6,60,"lamp_pos","lamp_inhib","lamp_pos","inhibition","control","distractor","target","R","lamp_pos","Y","7/27/2015","9:22",1388,4.29,4,"F"
"177","072715-01",1,6,61,"lamp_pos","lamp_pos","lamp_inhib","inhibition","control","target","distractor","L","lamp_pos","Y","7/27/2015","9:22",1330,4.29,4,"F"
"178","072715-01",1,6,62,"lamp_pos","lamp_pos","lamp_inhib","inhibition","control","target","distractor","L","lamp_pos","Y","7/27/2015","9:22",1141,4.29,4,"F"
"179","072715-01",1,6,63,"lamp_pos","lamp_inhib","lamp_pos","inhibition","control","distractor","target","R","lamp_pos","Y","7/27/2015","9:22",1041,4.29,4,"F"
"180","072715-01",1,6,64,"lamp_pos","lamp_inhib","lamp_pos","inhibition","control","distractor","target","R","lamp_pos","Y","7/27/2015","9:22",1072,4.29,4,"F"
"181","072715-01",1,6,65,"lamp_inhib","lamp_inhib","lamp_pos","inhibition","inhib","target","distractor","L","lamp_inhib","Y","7/27/2015","9:22",1389,4.29,4,"F"
"182","072715-01",1,6,66,"bird_pos","bird_inhib","bird_pos","inhibition","control","distractor","target","R","bird_pos","Y","7/27/2015","9:22",1299,4.29,4,"F"
"183","072715-01",1,6,67,"bird_pos","bird_inhib","bird_pos","inhibition","control","distractor","target","R","bird_pos","Y","7/27/2015","9:22",1299,4.29,4,"F"
"184","072715-01",1,6,68,"bird_pos","bird_inhib","bird_pos","inhibition","control","distractor","target","R","bird_pos","Y","7/27/2015","9:22",1148,4.29,4,"F"
"185","072715-01",1,6,69,"bird_pos","bird_inhib","bird_pos","inhibition","control","distractor","target","R","bird_pos","Y","7/27/2015","9:22",1062,4.29,4,"F"
"186","072715-01",1,6,70,"bird_pos","bird_inhib","bird_pos","inhibition","control","distractor","target","R","bird_pos","Y","7/27/2015","9:22",626,4.29,4,"F"
"187","072715-01",1,6,71,"bird_pos","bird_pos","bird_inhib","inhibition","control","target","distractor","R","bird_inhib","N","7/27/2015","9:22",562,4.29,4,"F"
"188","072715-01",1,6,72,"bird_inhib","bird_inhib","bird_pos","inhibition","inhib","target","distractor","L","bird_inhib","Y","7/27/2015","9:22",1983,4.29,4,"F"
"189","072715-01",1,6,73,"cup_pos","cup_inhib","cup_pos","inhibition","control","distractor","target","L","cup_inhib","N","7/27/2015","9:22",1952,4.29,4,"F"
"190","072715-01",1,6,74,"cup_pos","cup_pos","cup_inhib","inhibition","control","target","distractor","R","cup_inhib","N","7/27/2015","9:22",1626,4.29,4,"F"
"191","072715-01",1,6,75,"cup_pos","cup_pos","cup_inhib","inhibition","control","target","distractor","R","cup_inhib","N","7/27/2015","9:22",1220,4.29,4,"F"
"192","072715-01",1,6,76,"cup_pos","cup_inhib","cup_pos","inhibition","control","distractor","target","R","cup_pos","Y","7/27/2015","9:22",1091,4.29,4,"F"
"193","072715-01",1,6,77,"cup_pos","cup_inhib","cup_pos","inhibition","control","distractor","target","R","cup_pos","Y","7/27/2015","9:22",2132,4.29,4,"F"
"194","072715-01",1,6,78,"cup_inhib","cup_pos","cup_inhib","inhibition","inhib","distractor","target","R","cup_inhib","Y","7/27/2015","9:22",1957,4.29,4,"F"
"195","072715-01",1,6,26,"banana_control","banana_control","banana_foil","implicature","unambiguous","target","distractor","L","banana_control","Y","7/27/2015","9:22",1953,4.29,4,"F"
"196","072715-01",1,6,27,"apple_control","apple_foil","apple_control","implicature","unambiguous","distractor","target","R","apple_control","Y","7/27/2015","9:22",2316,4.29,4,"F"
"197","072715-01",1,6,28,"cat_implic","cat_control","cat_implic","implicature","implicature","distractor","target","R","cat_implic","Y","7/27/2015","9:22",2429,4.29,4,"F"
"198","072715-01",1,6,25,"bird_implic","bird_implic","bird_control","implicature","implicature","target","distractor","L","bird_implic","Y","7/27/2015","9:22",2239,4.29,4,"F"
"199","072715-02",2,4,1,"cat_implic","cat_control","cat_implic","implicature","implicature","distractor","target","R","cat_implic","Y","7/27/2015","9:45",2017,4.62,4,"M"
"200","072715-02",2,4,2,"bicycle_implic","bicycle_implic","bicycle_control","implicature","implicature","target","distractor","L","bicycle_implic","Y","7/27/2015","9:45",2008,4.62,4,"M"
"201","072715-02",2,4,3,"cup_control","cup_foil","cup_control","implicature","unambiguous","distractor","target","R","cup_control","Y","7/27/2015","9:45",1951,4.62,4,"M"
"202","072715-02",2,4,4,"teddybear_implic","teddybear_implic","teddybear_control","implicature","implicature","target","distractor","L","teddybear_implic","Y","7/27/2015","9:45",1720,4.62,4,"M"
"203","072715-02",2,4,5,"bird_implic","bird_control","bird_implic","implicature","implicature","distractor","target","R","bird_implic","Y","7/27/2015","9:45",2046,4.62,4,"M"
"204","072715-02",2,4,6,"apple_control","apple_control","apple_foil","implicature","unambiguous","target","distractor","L","apple_control","Y","7/27/2015","9:45",2141,4.62,4,"M"
"205","072715-02",2,4,7,"dog_implic","dog_control","dog_implic","implicature","implicature","distractor","target","R","dog_implic","Y","7/27/2015","9:45",1449,4.62,4,"M"
"206","072715-02",2,4,12,"lamp_control","lamp_foil","lamp_control","implicature","unambiguous","distractor","target","R","lamp_control","Y","7/27/2015","9:45",1296,4.62,4,"M"
"207","072715-02",2,4,13,"apple_control","apple_foil","apple_control","implicature","unambiguous","distractor","target","R","apple_control","Y","7/27/2015","9:45",1237,4.62,4,"M"
"208","072715-02",2,4,14,"dog_control","dog_control","dog_foil","implicature","unambiguous","target","distractor","L","dog_control","Y","7/27/2015","9:45",1171,4.62,4,"M"
"209","072715-02",2,4,15,"cup_control","cup_control","cup_foil","implicature","unambiguous","target","distractor","L","cup_control","Y","7/27/2015","9:45",1201,4.62,4,"M"
"210","072715-02",2,4,16,"teddybear_implic","teddybear_implic","teddybear_control","implicature","implicature","target","distractor","R","teddybear_control","N","7/27/2015","9:45",1048,4.62,4,"M"
"211","072715-02",2,4,17,"bicycle_implic","bicycle_implic","bicycle_control","implicature","implicature","target","distractor","L","bicycle_implic","Y","7/27/2015","9:45",1404,4.62,4,"M"
"212","072715-02",2,4,18,"flower_implic","flower_implic","flower_control","implicature","implicature","target","distractor","L","flower_implic","Y","7/27/2015","9:45",2574,4.62,4,"M"
"213","072715-02",2,4,19,"cat_implic","cat_implic","cat_control","implicature","implicature","target","distractor","R","cat_control","N","7/27/2015","9:45",1314,4.62,4,"M"
"214","072715-02",2,4,20,"car_control","car_control","car_foil","implicature","unambiguous","target","distractor","L","car_control","Y","7/27/2015","9:45",1324,4.62,4,"M"
"215","072715-02",2,4,21,"lamp_implic","lamp_implic","lamp_control","implicature","implicature","target","distractor","L","lamp_implic","Y","7/27/2015","9:45",1612,4.62,4,"M"
"216","072715-02",2,4,22,"banana_implic","banana_control","banana_implic","implicature","implicature","distractor","target","R","banana_implic","Y","7/27/2015","9:45",1308,4.62,4,"M"
"217","072715-02",2,4,23,"bird_implic","bird_implic","bird_control","implicature","implicature","target","distractor","L","bird_implic","Y","7/27/2015","9:45",1300,4.62,4,"M"
"218","072715-02",2,4,24,"cookie_control","cookie_foil","cookie_control","implicature","unambiguous","distractor","target","R","cookie_control","Y","7/27/2015","9:45",1460,4.62,4,"M"
"219","072715-02",2,4,25,"dog_control","dog_control","dog_foil","implicature","unambiguous","target","distractor","L","dog_control","Y","7/27/2015","9:45",2569,4.62,4,"M"
"220","072715-02",2,4,26,"lamp_implic","lamp_implic","lamp_control","implicature","implicature","target","distractor","L","lamp_implic","Y","7/27/2015","9:45",1147,4.62,4,"M"
"221","072715-02",2,4,27,"cookie_implic","cookie_control","cookie_implic","implicature","implicature","distractor","target","L","cookie_control","N","7/27/2015","9:45",918,4.62,4,"M"
"222","072715-02",2,4,28,"car_implic","car_control","car_implic","implicature","implicature","distractor","target","R","car_implic","Y","7/27/2015","9:45",1120,4.62,4,"M"
"223","072715-02",2,4,29,"cup_control","cup_control","cup_foil","implicature","unambiguous","target","distractor","L","cup_control","Y","7/27/2015","9:45",2499,4.62,4,"M"
"224","072715-02",2,4,30,"bicycle_control","bicycle_foil","bicycle_control","implicature","unambiguous","distractor","target","L","bicycle_foil","N","7/27/2015","9:45",998,4.62,4,"M"
"225","072715-02",2,4,31,"teddybear_control","teddybear_control","teddybear_foil","implicature","unambiguous","target","distractor","R","teddybear_foil","N","7/27/2015","9:45",1002,4.62,4,"M"
"226","072715-02",2,4,32,"flower_control","flower_foil","flower_control","implicature","unambiguous","distractor","target","L","flower_foil","N","7/27/2015","9:45",8572,4.62,4,"M"
"227","072715-02",2,4,33,"cat_implic","cat_control","cat_implic","implicature","implicature","distractor","target","R","cat_implic","Y","7/27/2015","9:45",2595,4.62,4,"M"
"228","072715-02",2,4,34,"apple_control","apple_control","apple_foil","implicature","unambiguous","target","distractor","L","apple_control","Y","7/27/2015","9:45",2578,4.62,4,"M"
"229","072715-02",2,4,35,"banana_implic","banana_implic","banana_control","implicature","implicature","target","distractor","L","banana_implic","Y","7/27/2015","9:45",4004,4.62,4,"M"
"230","072715-02",2,4,36,"bird_control","bird_control","bird_foil","implicature","unambiguous","target","distractor","L","bird_control","Y","7/27/2015","9:45",1310,4.62,4,"M"
"231","072715-02",2,4,37,"teddybear_implic","teddybear_implic","teddybear_control","implicature","implicature","target","distractor","L","teddybear_implic","Y","7/27/2015","9:45",1561,4.62,4,"M"
"232","072715-02",2,4,38,"cup_control","cup_control","cup_foil","implicature","unambiguous","target","distractor","L","cup_control","Y","7/27/2015","9:45",1212,4.62,4,"M"
"233","072715-02",2,4,39,"car_control","car_control","car_foil","implicature","unambiguous","target","distractor","L","car_control","Y","7/27/2015","9:45",1597,4.62,4,"M"
"234","072715-02",2,4,40,"banana_implic","banana_implic","banana_control","implicature","implicature","target","distractor","L","banana_implic","Y","7/27/2015","9:45",1819,4.62,4,"M"
"235","072715-02",2,4,41,"lamp_implic","lamp_implic","lamp_control","implicature","implicature","target","distractor","L","lamp_implic","Y","7/27/2015","9:45",1361,4.62,4,"M"
"236","072715-02",2,4,42,"apple_implic","apple_implic","apple_control","implicature","implicature","target","distractor","L","apple_implic","Y","7/27/2015","9:45",1849,4.62,4,"M"
"237","072715-02",2,4,43,"cookie_implic","cookie_control","cookie_implic","implicature","implicature","distractor","target","R","cookie_implic","Y","7/27/2015","9:45",1046,4.62,4,"M"
"238","072715-02",2,4,44,"cat_control","cat_control","cat_foil","implicature","unambiguous","target","distractor","L","cat_control","Y","7/27/2015","9:45",1101,4.62,4,"M"
"239","072715-02",2,4,45,"bird_control","bird_control","bird_foil","implicature","unambiguous","target","distractor","L","bird_control","Y","7/27/2015","9:45",1271,4.62,4,"M"
"240","072715-02",2,4,46,"flower_implic","flower_control","flower_implic","implicature","implicature","distractor","target","R","flower_implic","Y","7/27/2015","9:45",1429,4.62,4,"M"
"241","072715-02",2,4,47,"dog_implic","dog_implic","dog_control","implicature","implicature","target","distractor","L","dog_implic","Y","7/27/2015","9:45",1715,4.62,4,"M"
"242","072715-02",2,4,48,"bicycle_control","bicycle_control","bicycle_foil","implicature","unambiguous","target","distractor","L","bicycle_control","Y","7/27/2015","9:45",2087,4.62,4,"M"
"243","072715-02",2,4,49,"bird_control","bird_control","bird_foil","implicature","unambiguous","target","distractor","L","bird_control","Y","7/27/2015","9:45",1795,4.62,4,"M"
"244","072715-02",2,4,50,"flower_control","flower_control","flower_foil","implicature","unambiguous","target","distractor","L","flower_control","Y","7/27/2015","9:45",1449,4.62,4,"M"
"245","072715-02",2,4,51,"car_control","car_control","car_foil","implicature","unambiguous","target","distractor","L","car_control","Y","7/27/2015","9:45",1548,4.62,4,"M"
"246","072715-02",2,4,52,"lamp_implic","lamp_implic","lamp_control","implicature","implicature","target","distractor","L","lamp_implic","Y","7/27/2015","9:45",2408,4.62,4,"M"
"247","072715-02",2,4,53,"bicycle_implic","bicycle_implic","bicycle_control","implicature","implicature","target","distractor","L","bicycle_implic","Y","7/27/2015","9:45",2032,4.62,4,"M"
"248","072715-02",2,4,54,"dog_control","dog_control","dog_foil","implicature","unambiguous","target","distractor","L","dog_control","Y","7/27/2015","9:45",1646,4.62,4,"M"
"249","072715-02",2,4,55,"teddybear_control","teddybear_control","teddybear_foil","implicature","unambiguous","target","distractor","L","teddybear_control","Y","7/27/2015","9:45",2024,4.62,4,"M"
"250","072715-02",2,4,56,"cookie_implic","cookie_control","cookie_implic","implicature","implicature","distractor","target","R","cookie_implic","Y","7/27/2015","9:45",1627,4.62,4,"M"
"251","072715-02",2,4,57,"cat_control","cat_control","cat_foil","implicature","unambiguous","target","distractor","L","cat_control","Y","7/27/2015","9:45",1567,4.62,4,"M"
"252","072715-02",2,4,58,"apple_implic","apple_control","apple_implic","implicature","implicature","distractor","target","R","apple_implic","Y","7/27/2015","9:45",1126,4.62,4,"M"
"253","072715-02",2,4,59,"cup_control","cup_control","cup_foil","implicature","unambiguous","target","distractor","L","cup_control","Y","7/27/2015","9:45",1062,4.62,4,"M"
"254","072715-02",2,4,60,"banana_implic","banana_implic","banana_control","implicature","implicature","target","distractor","L","banana_implic","Y","7/27/2015","9:45",1290,4.62,4,"M"
"255","072715-02",2,4,1,"cup_pos","cup_pos","cup_inhib","inhibition","control","target","distractor","L","cup_pos","Y","7/27/2015","9:45",1181,4.62,4,"M"
"256","072715-02",2,4,2,"cup_pos","cup_inhib","cup_pos","inhibition","control","distractor","target","R","cup_pos","Y","7/27/2015","9:45",1049,4.62,4,"M"
"257","072715-02",2,4,3,"cup_pos","cup_pos","cup_inhib","inhibition","control","target","distractor","L","cup_pos","Y","7/27/2015","9:45",962,4.62,4,"M"
"258","072715-02",2,4,4,"cup_pos","cup_inhib","cup_pos","inhibition","control","distractor","target","R","cup_pos","Y","7/27/2015","9:45",833,4.62,4,"M"
"259","072715-02",2,4,5,"cup_pos","cup_pos","cup_inhib","inhibition","control","target","distractor","L","cup_pos","Y","7/27/2015","9:45",824,4.62,4,"M"
"260","072715-02",2,4,6,"cup_pos","cup_inhib","cup_pos","inhibition","control","distractor","target","R","cup_pos","Y","7/27/2015","9:45",764,4.62,4,"M"
"261","072715-02",2,4,7,"cup_inhib","cup_inhib","cup_pos","inhibition","inhib","target","distractor","L","cup_inhib","Y","7/27/2015","9:45",1196,4.62,4,"M"
"262","072715-02",2,4,8,"bird_pos","bird_pos","bird_inhib","inhibition","control","target","distractor","L","bird_pos","Y","7/27/2015","9:45",1350,4.62,4,"M"
"263","072715-02",2,4,9,"bird_pos","bird_pos","bird_inhib","inhibition","control","target","distractor","L","bird_pos","Y","7/27/2015","9:45",1028,4.62,4,"M"
"264","072715-02",2,4,10,"bird_pos","bird_pos","bird_inhib","inhibition","control","target","distractor","L","bird_pos","Y","7/27/2015","9:45",868,4.62,4,"M"
"265","072715-02",2,4,11,"bird_pos","bird_pos","bird_inhib","inhibition","control","target","distractor","L","bird_pos","Y","7/27/2015","9:45",875,4.62,4,"M"
"266","072715-02",2,4,12,"bird_pos","bird_inhib","bird_pos","inhibition","control","distractor","target","R","bird_pos","Y","7/27/2015","9:45",1078,4.62,4,"M"
"267","072715-02",2,4,13,"bird_pos","bird_pos","bird_inhib","inhibition","control","target","distractor","L","bird_pos","Y","7/27/2015","9:45",1260,4.62,4,"M"
"268","072715-02",2,4,14,"bird_inhib","bird_inhib","bird_pos","inhibition","inhib","target","distractor","L","bird_inhib","Y","7/27/2015","9:45",1476,4.62,4,"M"
"269","072715-02",2,4,15,"lamp_pos","lamp_inhib","lamp_pos","inhibition","control","distractor","target","R","lamp_pos","Y","7/27/2015","9:45",1365,4.62,4,"M"
"270","072715-02",2,4,16,"lamp_pos","lamp_inhib","lamp_pos","inhibition","control","distractor","target","R","lamp_pos","Y","7/27/2015","9:45",1394,4.62,4,"M"
"271","072715-02",2,4,17,"lamp_pos","lamp_pos","lamp_inhib","inhibition","control","target","distractor","L","lamp_pos","Y","7/27/2015","9:45",1728,4.62,4,"M"
"272","072715-02",2,4,18,"lamp_pos","lamp_pos","lamp_inhib","inhibition","control","target","distractor","L","lamp_pos","Y","7/27/2015","9:45",948,4.62,4,"M"
"273","072715-02",2,4,19,"lamp_pos","lamp_pos","lamp_inhib","inhibition","control","target","distractor","L","lamp_pos","Y","7/27/2015","9:45",513,4.62,4,"M"
"274","072715-02",2,4,20,"lamp_inhib","lamp_inhib","lamp_pos","inhibition","inhib","target","distractor","L","lamp_inhib","Y","7/27/2015","9:45",1841,4.62,4,"M"
"275","072715-02",2,4,21,"cookie_pos","cookie_inhib","cookie_pos","inhibition","control","distractor","target","R","cookie_pos","Y","7/27/2015","9:45",1404,4.62,4,"M"
"276","072715-02",2,4,22,"cookie_pos","cookie_inhib","cookie_pos","inhibition","control","distractor","target","R","cookie_pos","Y","7/27/2015","9:45",1366,4.62,4,"M"
"277","072715-02",2,4,23,"cookie_pos","cookie_inhib","cookie_pos","inhibition","control","distractor","target","R","cookie_pos","Y","7/27/2015","9:45",853,4.62,4,"M"
"278","072715-02",2,4,24,"cookie_pos","cookie_pos","cookie_inhib","inhibition","control","target","distractor","L","cookie_pos","Y","7/27/2015","9:45",1099,4.62,4,"M"
"279","072715-02",2,4,25,"cookie_pos","cookie_pos","cookie_inhib","inhibition","control","target","distractor","L","cookie_pos","Y","7/27/2015","9:45",864,4.62,4,"M"
"280","072715-02",2,4,26,"cookie_pos","cookie_pos","cookie_inhib","inhibition","control","target","distractor","L","cookie_pos","Y","7/27/2015","9:45",1071,4.62,4,"M"
"281","072715-02",2,4,27,"cookie_inhib","cookie_inhib","cookie_pos","inhibition","inhib","target","distractor","L","cookie_inhib","Y","7/27/2015","9:45",1498,4.62,4,"M"
"282","072715-02",2,4,28,"flower_pos","flower_inhib","flower_pos","inhibition","control","distractor","target","R","flower_pos","Y","7/27/2015","9:45",1636,4.62,4,"M"
"283","072715-02",2,4,29,"flower_pos","flower_pos","flower_inhib","inhibition","control","target","distractor","L","flower_pos","Y","7/27/2015","9:45",1642,4.62,4,"M"
"284","072715-02",2,4,30,"flower_pos","flower_inhib","flower_pos","inhibition","control","distractor","target","R","flower_pos","Y","7/27/2015","9:45",5723,4.62,4,"M"
"285","072715-02",2,4,31,"flower_pos","flower_pos","flower_inhib","inhibition","control","target","distractor","L","flower_pos","Y","7/27/2015","9:45",1294,4.62,4,"M"
"286","072715-02",2,4,32,"flower_pos","flower_pos","flower_inhib","inhibition","control","target","distractor","L","flower_pos","Y","7/27/2015","9:45",1215,4.62,4,"M"
"287","072715-02",2,4,33,"flower_inhib","flower_pos","flower_inhib","inhibition","inhib","distractor","target","R","flower_inhib","Y","7/27/2015","9:45",1042,4.62,4,"M"
"288","072715-02",2,4,34,"cat_pos","cat_inhib","cat_pos","inhibition","control","distractor","target","L","cat_inhib","N","7/27/2015","9:45",1210,4.62,4,"M"
"289","072715-02",2,4,35,"cat_pos","cat_pos","cat_inhib","inhibition","control","target","distractor","L","cat_pos","Y","7/27/2015","9:45",3747,4.62,4,"M"
"290","072715-02",2,4,36,"cat_pos","cat_pos","cat_inhib","inhibition","control","target","distractor","L","cat_pos","Y","7/27/2015","9:45",758,4.62,4,"M"
"291","072715-02",2,4,37,"cat_pos","cat_pos","cat_inhib","inhibition","control","target","distractor","L","cat_pos","Y","7/27/2015","9:45",461,4.62,4,"M"
"292","072715-02",2,4,38,"cat_pos","cat_pos","cat_inhib","inhibition","control","target","distractor","L","cat_pos","Y","7/27/2015","9:45",358,4.62,4,"M"
"293","072715-02",2,4,39,"cat_inhib","cat_inhib","cat_pos","inhibition","inhib","target","distractor","L","cat_inhib","Y","7/27/2015","9:45",1337,4.62,4,"M"
"294","072715-02",2,4,40,"bicycle_pos","bicycle_pos","bicycle_inhib","inhibition","control","target","distractor","L","bicycle_pos","Y","7/27/2015","9:45",2774,4.62,4,"M"
"295","072715-02",2,4,41,"bicycle_pos","bicycle_inhib","bicycle_pos","inhibition","control","distractor","target","R","bicycle_pos","Y","7/27/2015","9:45",2387,4.62,4,"M"
"296","072715-02",2,4,42,"bicycle_pos","bicycle_inhib","bicycle_pos","inhibition","control","distractor","target","R","bicycle_pos","Y","7/27/2015","9:45",1418,4.62,4,"M"
"297","072715-02",2,4,43,"bicycle_pos","bicycle_inhib","bicycle_pos","inhibition","control","distractor","target","R","bicycle_pos","Y","7/27/2015","9:45",1022,4.62,4,"M"
"298","072715-02",2,4,44,"bicycle_pos","bicycle_pos","bicycle_inhib","inhibition","control","target","distractor","L","bicycle_pos","Y","7/27/2015","9:45",1666,4.62,4,"M"
"299","072715-02",2,4,45,"bicycle_inhib","bicycle_inhib","bicycle_pos","inhibition","inhib","target","distractor","L","bicycle_inhib","Y","7/27/2015","9:45",1463,4.62,4,"M"
"300","072715-02",2,4,46,"banana_pos","banana_inhib","banana_pos","inhibition","control","distractor","target","R","banana_pos","Y","7/27/2015","9:45",7052,4.62,4,"M"
"301","072715-02",2,4,47,"banana_pos","banana_inhib","banana_pos","inhibition","control","distractor","target","R","banana_pos","Y","7/27/2015","9:45",1309,4.62,4,"M"
"302","072715-02",2,4,48,"banana_pos","banana_inhib","banana_pos","inhibition","control","distractor","target","R","banana_pos","Y","7/27/2015","9:45",991,4.62,4,"M"
"303","072715-02",2,4,49,"banana_pos","banana_inhib","banana_pos","inhibition","control","distractor","target","R","banana_pos","Y","7/27/2015","9:45",528,4.62,4,"M"
"304","072715-02",2,4,50,"banana_pos","banana_pos","banana_inhib","inhibition","control","target","distractor","L","banana_pos","Y","7/27/2015","9:45",2339,4.62,4,"M"
"305","072715-02",2,4,51,"banana_pos","banana_inhib","banana_pos","inhibition","control","distractor","target","R","banana_pos","Y","7/27/2015","9:45",2014,4.62,4,"M"
"306","072715-02",2,4,52,"banana_inhib","banana_inhib","banana_pos","inhibition","inhib","target","distractor","L","banana_inhib","Y","7/27/2015","9:45",2012,4.62,4,"M"
"307","072715-02",2,4,53,"teddybear_pos","teddybear_pos","teddybear_inhib","inhibition","control","target","distractor","L","teddybear_pos","Y","7/27/2015","9:45",1418,4.62,4,"M"
"308","072715-02",2,4,54,"teddybear_pos","teddybear_pos","teddybear_inhib","inhibition","control","target","distractor","L","teddybear_pos","Y","7/27/2015","9:45",1102,4.62,4,"M"
"309","072715-02",2,4,55,"teddybear_pos","teddybear_inhib","teddybear_pos","inhibition","control","distractor","target","R","teddybear_pos","Y","7/27/2015","9:45",929,4.62,4,"M"
"310","072715-02",2,4,56,"teddybear_pos","teddybear_pos","teddybear_inhib","inhibition","control","target","distractor","L","teddybear_pos","Y","7/27/2015","9:45",1478,4.62,4,"M"
"311","072715-02",2,4,57,"teddybear_pos","teddybear_pos","teddybear_inhib","inhibition","control","target","distractor","L","teddybear_pos","Y","7/27/2015","9:45",1170,4.62,4,"M"
"312","072715-02",2,4,58,"teddybear_pos","teddybear_pos","teddybear_inhib","inhibition","control","target","distractor","L","teddybear_pos","Y","7/27/2015","9:45",870,4.62,4,"M"
"313","072715-02",2,4,59,"teddybear_inhib","teddybear_inhib","teddybear_pos","inhibition","inhib","target","distractor","L","teddybear_inhib","Y","7/27/2015","9:45",1366,4.62,4,"M"
"314","072715-02",2,4,60,"dog_pos","dog_inhib","dog_pos","inhibition","control","distractor","target","L","dog_inhib","N","7/27/2015","9:45",714,4.62,4,"M"
"315","072715-02",2,4,61,"dog_pos","dog_inhib","dog_pos","inhibition","control","distractor","target","R","dog_pos","Y","7/27/2015","9:45",1066,4.62,4,"M"
"316","072715-02",2,4,62,"dog_pos","dog_inhib","dog_pos","inhibition","control","distractor","target","R","dog_pos","Y","7/27/2015","9:45",691,4.62,4,"M"
"317","072715-02",2,4,63,"dog_pos","dog_pos","dog_inhib","inhibition","control","target","distractor","L","dog_pos","Y","7/27/2015","9:45",1142,4.62,4,"M"
"318","072715-02",2,4,64,"dog_pos","dog_inhib","dog_pos","inhibition","control","distractor","target","R","dog_pos","Y","7/27/2015","9:45",1815,4.62,4,"M"
"319","072715-02",2,4,65,"dog_inhib","dog_pos","dog_inhib","inhibition","inhib","distractor","target","R","dog_inhib","Y","7/27/2015","9:45",2818,4.62,4,"M"
"320","072715-02",2,4,66,"car_pos","car_pos","car_inhib","inhibition","control","target","distractor","L","car_pos","Y","7/27/2015","9:45",2376,4.62,4,"M"
"321","072715-02",2,4,67,"car_pos","car_pos","car_inhib","inhibition","control","target","distractor","L","car_pos","Y","7/27/2015","9:45",745,4.62,4,"M"
"322","072715-02",2,4,68,"car_pos","car_pos","car_inhib","inhibition","control","target","distractor","L","car_pos","Y","7/27/2015","9:45",617,4.62,4,"M"
"323","072715-02",2,4,8,"cookie_control","cookie_foil","cookie_control","implicature","unambiguous","distractor","target","R","cookie_control","Y","7/27/2015","9:45",1269,4.62,4,"M"
"324","072715-02",2,4,9,"banana_control","banana_foil","banana_control","implicature","unambiguous","distractor","target","R","banana_control","Y","7/27/2015","9:45",1934,4.62,4,"M"
"325","072715-02",2,4,10,"flower_control","flower_control","flower_foil","implicature","unambiguous","target","distractor","L","flower_control","Y","7/27/2015","9:45",1409,4.62,4,"M"
"326","072715-02",2,4,11,"car_implic","car_implic","car_control","implicature","implicature","target","distractor","L","car_implic","Y","7/27/2015","9:45",1151,4.62,4,"M"
"327","072715-02",2,4,73,"apple_pos","apple_inhib","apple_pos","inhibition","control","distractor","target","R","apple_pos","Y","7/27/2015","9:45",1138,4.62,4,"M"
"328","072715-02",2,4,74,"apple_pos","apple_pos","apple_inhib","inhibition","control","target","distractor","L","apple_pos","Y","7/27/2015","9:45",962,4.62,4,"M"
"329","072715-02",2,4,75,"apple_pos","apple_pos","apple_inhib","inhibition","control","target","distractor","L","apple_pos","Y","7/27/2015","9:45",745,4.62,4,"M"
"330","072715-02",2,4,76,"apple_pos","apple_pos","apple_inhib","inhibition","control","target","distractor","L","apple_pos","Y","7/27/2015","9:45",961,4.62,4,"M"
"331","072715-02",2,4,77,"apple_pos","apple_inhib","apple_pos","inhibition","control","distractor","target","R","apple_pos","Y","7/27/2015","9:45",993,4.62,4,"M"
"332","072715-02",2,4,78,"apple_pos","apple_pos","apple_inhib","inhibition","control","target","distractor","L","apple_pos","Y","7/27/2015","9:45",1337,4.62,4,"M"
"333","072715-02",2,4,79,"apple_inhib","apple_pos","apple_inhib","inhibition","inhib","distractor","target","R","apple_inhib","Y","7/27/2015","9:45",1185,4.62,4,"M"
"334","072715-02",2,4,1,"cookie_neg","cookie_pos","cookie_neg","negation","negative","distractor","target","R","cookie_neg","Y","7/27/2015","9:45",1698,4.62,4,"M"
"335","072715-02",2,4,2,"flower_pos","flower_neg","flower_pos","negation","positive","distractor","target","R","flower_pos","Y","7/27/2015","9:45",1289,4.62,4,"M"
"336","072715-02",2,4,3,"cat_neg","cat_pos","cat_neg","negation","negative","distractor","target","R","cat_neg","Y","7/27/2015","9:45",1394,4.62,4,"M"
"337","072715-02",2,4,4,"bicycle_neg","bicycle_pos","bicycle_neg","negation","negative","distractor","target","R","bicycle_neg","Y","7/27/2015","9:45",1447,4.62,4,"M"
"338","072715-02",2,4,5,"lamp_neg","lamp_pos","lamp_neg","negation","negative","distractor","target","R","lamp_neg","Y","7/27/2015","9:45",1533,4.62,4,"M"
"339","072715-02",2,4,6,"bird_pos","bird_neg","bird_pos","negation","positive","distractor","target","R","bird_pos","Y","7/27/2015","9:45",1810,4.62,4,"M"
"340","072715-02",2,4,7,"banana_pos","banana_neg","banana_pos","negation","positive","distractor","target","R","banana_pos","Y","7/27/2015","9:45",1309,4.62,4,"M"
"341","072715-02",2,4,8,"dog_neg","dog_neg","dog_pos","negation","negative","target","distractor","L","dog_neg","Y","7/27/2015","9:45",1448,4.62,4,"M"
"342","072715-02",2,4,9,"apple_pos","apple_neg","apple_pos","negation","positive","distractor","target","R","apple_pos","Y","7/27/2015","9:45",1696,4.62,4,"M"
"343","072715-02",2,4,10,"car_pos","car_neg","car_pos","negation","positive","distractor","target","R","car_pos","Y","7/27/2015","9:45",1339,4.62,4,"M"
"344","072715-02",2,4,11,"teddybear_pos","teddybear_neg","teddybear_pos","negation","positive","distractor","target","R","teddybear_pos","Y","7/27/2015","9:45",1179,4.62,4,"M"
"345","072715-02",2,4,12,"cup_neg","cup_pos","cup_neg","negation","negative","distractor","target","L","cup_pos","N","7/27/2015","9:45",1145,4.62,4,"M"
"346","072715-02",2,4,13,"apple_pos","apple_pos","apple_neg","negation","positive","target","distractor","L","apple_pos","Y","7/27/2015","9:45",2702,4.62,4,"M"
"347","072715-02",2,4,14,"cookie_pos","cookie_neg","cookie_pos","negation","positive","distractor","target","R","cookie_pos","Y","7/27/2015","9:45",1756,4.62,4,"M"
"348","072715-02",2,4,15,"banana_pos","banana_pos","banana_neg","negation","positive","target","distractor","R","banana_neg","N","7/27/2015","9:45",824,4.62,4,"M"
"349","072715-02",2,4,16,"dog_neg","dog_neg","dog_pos","negation","negative","target","distractor","L","dog_neg","Y","7/27/2015","9:45",2113,4.62,4,"M"
"350","072715-02",2,4,17,"bird_pos","bird_neg","bird_pos","negation","positive","distractor","target","R","bird_pos","Y","7/27/2015","9:45",2025,4.62,4,"M"
"351","072715-02",2,4,18,"bicycle_neg","bicycle_pos","bicycle_neg","negation","negative","distractor","target","R","bicycle_neg","Y","7/27/2015","9:45",1746,4.62,4,"M"
"352","072715-02",2,4,19,"cup_pos","cup_neg","cup_pos","negation","positive","distractor","target","R","cup_pos","Y","7/27/2015","9:45",2337,4.62,4,"M"
"353","072715-02",2,4,20,"lamp_neg","lamp_neg","lamp_pos","negation","negative","target","distractor","L","lamp_neg","Y","7/27/2015","9:45",2043,4.62,4,"M"
"354","072715-02",2,4,21,"car_neg","car_pos","car_neg","negation","negative","distractor","target","L","car_pos","N","7/27/2015","9:45",1256,4.62,4,"M"
"355","072715-02",2,4,22,"cat_neg","cat_pos","cat_neg","negation","negative","distractor","target","L","cat_pos","N","7/27/2015","9:45",741.000000000001,4.62,4,"M"
"356","072715-02",2,4,23,"flower_neg","flower_neg","flower_pos","negation","negative","target","distractor","L","flower_neg","Y","7/27/2015","9:45",4989,4.62,4,"M"
"357","072715-02",2,4,24,"teddybear_pos","teddybear_pos","teddybear_neg","negation","positive","target","distractor","L","teddybear_pos","Y","7/27/2015","9:45",4613,4.62,4,"M"
"358","072715-02",2,4,25,"lamp_pos","lamp_neg","lamp_pos","negation","positive","distractor","target","R","lamp_pos","Y","7/27/2015","9:45",1573,4.62,4,"M"
"359","072715-02",2,4,26,"flower_neg","flower_pos","flower_neg","negation","negative","distractor","target","R","flower_neg","Y","7/27/2015","9:45",2378,4.62,4,"M"
"360","072715-02",2,4,27,"bicycle_pos","bicycle_pos","bicycle_neg","negation","positive","target","distractor","R","bicycle_neg","N","7/27/2015","9:45",418,4.62,4,"M"
"361","072715-02",2,4,28,"dog_neg","dog_neg","dog_pos","negation","negative","target","distractor","L","dog_neg","Y","7/27/2015","9:45",3945,4.62,4,"M"
"362","072715-02",2,4,29,"cup_neg","cup_neg","cup_pos","negation","negative","target","distractor","L","cup_neg","Y","7/27/2015","9:45",3016,4.62,4,"M"
"363","072715-02",2,4,30,"apple_neg","apple_neg","apple_pos","negation","negative","target","distractor","R","apple_pos","N","7/27/2015","9:45",6056,4.62,4,"M"
"364","072715-02",2,4,31,"cookie_neg","cookie_neg","cookie_pos","negation","negative","target","distractor","L","cookie_neg","Y","7/27/2015","9:45",2191,4.62,4,"M"
"365","072715-02",2,4,32,"teddybear_neg","teddybear_neg","teddybear_pos","negation","negative","target","distractor","R","teddybear_pos","N","7/27/2015","9:45",1280,4.62,4,"M"
"366","072715-02",2,4,33,"bird_pos","bird_neg","bird_pos","negation","positive","distractor","target","R","bird_pos","Y","7/27/2015","9:45",1494,4.62,4,"M"
"367","072715-02",2,4,34,"cat_neg","cat_neg","cat_pos","negation","negative","target","distractor","L","cat_neg","Y","7/27/2015","9:45",2505,4.62,4,"M"
"368","072715-02",2,4,35,"banana_neg","banana_neg","banana_pos","negation","negative","target","distractor","L","banana_neg","Y","7/27/2015","9:45",2119,4.62,4,"M"
"369","072715-02",2,4,36,"car_pos","car_neg","car_pos","negation","positive","distractor","target","R","car_pos","Y","7/27/2015","9:45",1835,4.62,4,"M"
"370","072715-02",2,4,37,"car_pos","car_neg","car_pos","negation","positive","distractor","target","R","car_pos","Y","7/27/2015","9:45",1102,4.62,4,"M"
"371","072715-02",2,4,38,"banana_pos","banana_pos","banana_neg","negation","positive","target","distractor","L","banana_pos","Y","7/27/2015","9:45",1883,4.62,4,"M"
"372","072715-02",2,4,39,"dog_pos","dog_pos","dog_neg","negation","positive","target","distractor","L","dog_pos","Y","7/27/2015","9:45",2630,4.62,4,"M"
"373","072715-02",2,4,40,"teddybear_pos","teddybear_neg","teddybear_pos","negation","positive","distractor","target","R","teddybear_pos","Y","7/27/2015","9:45",1795,4.62,4,"M"
"374","072715-02",2,4,41,"cup_pos","cup_neg","cup_pos","negation","positive","distractor","target","R","cup_pos","Y","7/27/2015","9:45",2896,4.62,4,"M"
"375","072715-02",2,4,42,"bird_neg","bird_neg","bird_pos","negation","negative","target","distractor","L","bird_neg","Y","7/27/2015","9:45",2020,4.62,4,"M"
"376","072715-02",2,4,43,"apple_neg","apple_pos","apple_neg","negation","negative","distractor","target","R","apple_neg","Y","7/27/2015","9:45",2493,4.62,4,"M"
"377","072715-02",2,4,44,"lamp_pos","lamp_pos","lamp_neg","negation","positive","target","distractor","L","lamp_pos","Y","7/27/2015","9:45",2333,4.62,4,"M"
"378","072715-02",2,4,45,"cat_neg","cat_neg","cat_pos","negation","negative","target","distractor","R","cat_pos","N","7/27/2015","9:45",1292,4.62,4,"M"
"379","072715-02",2,4,46,"cookie_pos","cookie_pos","cookie_neg","negation","positive","target","distractor","L","cookie_pos","Y","7/27/2015","9:45",2063,4.62,4,"M"
"380","072715-02",2,4,47,"bicycle_pos","bicycle_pos","bicycle_neg","negation","positive","target","distractor","L","bicycle_pos","Y","7/27/2015","9:45",1269,4.62,4,"M"
"381","072715-02",2,4,48,"flower_pos","flower_pos","flower_neg","negation","positive","target","distractor","L","flower_pos","Y","7/27/2015","9:45",1256,4.62,4,"M"
"382","072715-02",2,4,49,"banana_pos","banana_pos","banana_neg","negation","positive","target","distractor","L","banana_pos","Y","7/27/2015","9:45",1312,4.62,4,"M"
"383","072715-02",2,4,50,"flower_neg","flower_pos","flower_neg","negation","negative","distractor","target","R","flower_neg","Y","7/27/2015","9:45",1019,4.62,4,"M"
"384","072715-02",2,4,51,"bird_neg","bird_pos","bird_neg","negation","negative","distractor","target","R","bird_neg","Y","7/27/2015","9:45",1139,4.62,4,"M"
"385","072715-02",2,4,52,"apple_neg","apple_pos","apple_neg","negation","negative","distractor","target","R","apple_neg","Y","7/27/2015","9:45",1510,4.62,4,"M"
"386","072715-02",2,4,53,"lamp_neg","lamp_neg","lamp_pos","negation","negative","target","distractor","L","lamp_neg","Y","7/27/2015","9:45",1335,4.62,4,"M"
"387","072715-02",2,4,54,"bicycle_neg","bicycle_pos","bicycle_neg","negation","negative","distractor","target","L","bicycle_pos","N","7/27/2015","9:45",817.000000000001,4.62,4,"M"
"388","072715-02",2,4,55,"cup_pos","cup_neg","cup_pos","negation","positive","distractor","target","R","cup_pos","Y","7/27/2015","9:45",1310,4.62,4,"M"
"389","072715-02",2,4,56,"car_neg","car_pos","car_neg","negation","negative","distractor","target","R","car_neg","Y","7/27/2015","9:45",2038,4.62,4,"M"
"390","072715-02",2,4,57,"cookie_pos","cookie_pos","cookie_neg","negation","positive","target","distractor","L","cookie_pos","Y","7/27/2015","9:45",1458,4.62,4,"M"
"391","072715-02",2,4,58,"teddybear_neg","teddybear_pos","teddybear_neg","negation","negative","distractor","target","R","teddybear_neg","Y","7/27/2015","9:45",919.999999999998,4.62,4,"M"
"392","072715-02",2,4,59,"cat_pos","cat_pos","cat_neg","negation","positive","target","distractor","L","cat_pos","Y","7/27/2015","9:45",1984,4.62,4,"M"
"393","072715-02",2,4,60,"dog_pos","dog_pos","dog_neg","negation","positive","target","distractor","L","dog_pos","Y","7/27/2015","9:45",1840,4.62,4,"M"
"394","072715-02",2,4,70,"car_pos","car_pos","car_inhib","inhibition","control","target","distractor","L","car_pos","Y","7/27/2015","9:45",775,4.62,4,"M"
"395","072715-02",2,4,71,"car_pos","car_inhib","car_pos","inhibition","control","distractor","target","R","car_pos","Y","7/27/2015","9:45",695,4.62,4,"M"
"396","072715-02",2,4,72,"car_inhib","car_pos","car_inhib","inhibition","inhib","distractor","target","R","car_inhib","Y","7/27/2015","9:45",1040,4.62,4,"M"
"397","072715-02",2,4,69,"car_pos","car_inhib","car_pos","inhibition","control","distractor","target","R","car_pos","Y","7/27/2015","9:45",943,4.62,4,"M"
"398","072815-03",1,4,4,"cat_implic","cat_implic","cat_control","implicature","implicature","target","distractor","R","cat_control","N","7/28/2015","13:11",1486,4.46,4,"F"
"399","072815-03",1,4,6,"teddybear_control","teddybear_control","teddybear_foil","implicature","unambiguous","target","distractor","L","teddybear_control","Y","7/28/2015","13:11",1635,4.46,4,"F"
"400","072815-03",1,4,7,"dog_implic","dog_implic","dog_control","implicature","implicature","target","distractor","R","dog_control","N","7/28/2015","13:11",1655,4.46,4,"F"
"401","072815-03",1,4,8,"bicycle_control","bicycle_foil","bicycle_control","implicature","unambiguous","distractor","target","R","bicycle_control","Y","7/28/2015","13:11",1452,4.46,4,"F"
"402","072815-03",1,4,5,"cookie_control","cookie_foil","cookie_control","implicature","unambiguous","distractor","target","R","cookie_control","Y","7/28/2015","13:11",1361,4.46,4,"F"
"403","072815-03",1,4,10,"car_control","car_foil","car_control","implicature","unambiguous","distractor","target","R","car_control","Y","7/28/2015","13:11",1224,4.46,4,"F"
"404","072815-03",1,4,11,"flower_implic","flower_control","flower_implic","implicature","implicature","distractor","target","L","flower_control","N","7/28/2015","13:11",1471,4.46,4,"F"
"405","072815-03",1,4,12,"bird_control","bird_control","bird_foil","implicature","unambiguous","target","distractor","L","bird_control","Y","7/28/2015","13:11",1254,4.46,4,"F"
"406","072815-03",1,4,9,"lamp_implic","lamp_implic","lamp_control","implicature","implicature","target","distractor","R","lamp_control","N","7/28/2015","13:11",1373,4.46,4,"F"
"407","072815-03",1,4,1,"banana_implic","banana_implic","banana_control","implicature","implicature","target","distractor","R","banana_control","N","7/28/2015","13:11",9805,4.46,4,"F"
"408","072815-03",1,4,2,"cup_control","cup_control","cup_foil","implicature","unambiguous","target","distractor","L","cup_control","Y","7/28/2015","13:11",3789,4.46,4,"F"
"409","072815-03",1,4,3,"apple_implic","apple_implic","apple_control","implicature","implicature","target","distractor","R","apple_control","N","7/28/2015","13:11",1685,4.46,4,"F"
"410","072815-03",1,4,17,"cat_control","cat_foil","cat_control","implicature","unambiguous","distractor","target","R","cat_control","Y","7/28/2015","13:11",1455,4.46,4,"F"
"411","072815-03",1,4,18,"cookie_implic","cookie_control","cookie_implic","implicature","implicature","distractor","target","L","cookie_control","N","7/28/2015","13:11",1615,4.46,4,"F"
"412","072815-03",1,4,19,"apple_implic","apple_control","apple_implic","implicature","implicature","distractor","target","L","apple_control","N","7/28/2015","13:11",1133,4.46,4,"F"
"413","072815-03",1,4,20,"lamp_control","lamp_control","lamp_foil","implicature","unambiguous","target","distractor","L","lamp_control","Y","7/28/2015","13:11",1490,4.46,4,"F"
"414","072815-03",1,4,21,"banana_control","banana_control","banana_foil","implicature","unambiguous","target","distractor","L","banana_control","Y","7/28/2015","13:11",1119,4.46,4,"F"
"415","072815-03",1,4,22,"car_control","car_foil","car_control","implicature","unambiguous","distractor","target","R","car_control","Y","7/28/2015","13:11",1035,4.46,4,"F"
"416","072815-03",1,4,23,"cup_implic","cup_control","cup_implic","implicature","implicature","distractor","target","L","cup_control","N","7/28/2015","13:11",1200,4.46,4,"F"
"417","072815-03",1,4,24,"teddybear_control","teddybear_control","teddybear_foil","implicature","unambiguous","target","distractor","L","teddybear_control","Y","7/28/2015","13:11",1209,4.46,4,"F"
"418","072815-03",1,4,25,"bird_control","bird_foil","bird_control","implicature","unambiguous","distractor","target","R","bird_control","Y","7/28/2015","13:11",1037,4.46,4,"F"
"419","072815-03",1,4,26,"banana_control","banana_control","banana_foil","implicature","unambiguous","target","distractor","L","banana_control","Y","7/28/2015","13:11",1682,4.46,4,"F"
"420","072815-03",1,4,27,"apple_control","apple_foil","apple_control","implicature","unambiguous","distractor","target","R","apple_control","Y","7/28/2015","13:11",1242,4.46,4,"F"
"421","072815-03",1,4,28,"cat_implic","cat_control","cat_implic","implicature","implicature","distractor","target","L","cat_control","N","7/28/2015","13:11",1276,4.46,4,"F"
"422","072815-03",1,4,29,"flower_implic","flower_control","flower_implic","implicature","implicature","distractor","target","R","flower_implic","Y","7/28/2015","13:11",1300,4.46,4,"F"
"423","072815-03",1,4,30,"teddybear_control","teddybear_control","teddybear_foil","implicature","unambiguous","target","distractor","L","teddybear_control","Y","7/28/2015","13:11",1386,4.46,4,"F"
"424","072815-03",1,4,31,"bicycle_control","bicycle_control","bicycle_foil","implicature","unambiguous","target","distractor","L","bicycle_control","Y","7/28/2015","13:11",1146,4.46,4,"F"
"425","072815-03",1,4,32,"cup_control","cup_foil","cup_control","implicature","unambiguous","distractor","target","R","cup_control","Y","7/28/2015","13:11",1099,4.46,4,"F"
"426","072815-03",1,4,33,"car_control","car_control","car_foil","implicature","unambiguous","target","distractor","L","car_control","Y","7/28/2015","13:11",1144,4.46,4,"F"
"427","072815-03",1,4,34,"cookie_implic","cookie_control","cookie_implic","implicature","implicature","distractor","target","L","cookie_control","N","7/28/2015","13:11",1175,4.46,4,"F"
"428","072815-03",1,4,35,"lamp_implic","lamp_implic","lamp_control","implicature","implicature","target","distractor","R","lamp_control","N","7/28/2015","13:11",1114,4.46,4,"F"
"429","072815-03",1,4,36,"dog_control","dog_foil","dog_control","implicature","unambiguous","distractor","target","R","dog_control","Y","7/28/2015","13:11",1094,4.46,4,"F"
"430","072815-03",1,4,37,"cookie_control","cookie_foil","cookie_control","implicature","unambiguous","distractor","target","R","cookie_control","Y","7/28/2015","13:11",827,4.46,4,"F"
"431","072815-03",1,4,38,"bird_implic","bird_control","bird_implic","implicature","implicature","distractor","target","L","bird_control","N","7/28/2015","13:11",1461,4.46,4,"F"
"432","072815-03",1,4,39,"banana_control","banana_foil","banana_control","implicature","unambiguous","distractor","target","R","banana_control","Y","7/28/2015","13:11",1093,4.46,4,"F"
"433","072815-03",1,4,40,"lamp_implic","lamp_implic","lamp_control","implicature","implicature","target","distractor","R","lamp_control","N","7/28/2015","13:11",826,4.46,4,"F"
"434","072815-03",1,4,41,"car_implic","car_implic","car_control","implicature","implicature","target","distractor","R","car_control","N","7/28/2015","13:11",1185,4.46,4,"F"
"435","072815-03",1,4,42,"cat_implic","cat_control","cat_implic","implicature","implicature","distractor","target","L","cat_control","N","7/28/2015","13:11",927,4.46,4,"F"
"436","072815-03",1,4,43,"flower_control","flower_control","flower_foil","implicature","unambiguous","target","distractor","L","flower_control","Y","7/28/2015","13:11",1393,4.46,4,"F"
"437","072815-03",1,4,44,"bicycle_control","bicycle_foil","bicycle_control","implicature","unambiguous","distractor","target","R","bicycle_control","Y","7/28/2015","13:11",990,4.46,4,"F"
"438","072815-03",1,4,45,"teddybear_implic","teddybear_control","teddybear_implic","implicature","implicature","distractor","target","L","teddybear_control","N","7/28/2015","13:11",975,4.46,4,"F"
"439","072815-03",1,4,46,"cup_implic","cup_control","cup_implic","implicature","implicature","distractor","target","L","cup_control","N","7/28/2015","13:11",955,4.46,4,"F"
"440","072815-03",1,4,47,"dog_control","dog_control","dog_foil","implicature","unambiguous","target","distractor","L","dog_control","Y","7/28/2015","13:11",2025,4.46,4,"F"
"441","072815-03",1,4,48,"apple_implic","apple_control","apple_implic","implicature","implicature","distractor","target","L","apple_control","N","7/28/2015","13:11",2467,4.46,4,"F"
"442","072815-03",1,4,49,"lamp_implic","lamp_control","lamp_implic","implicature","implicature","distractor","target","L","lamp_control","N","7/28/2015","13:11",1010,4.46,4,"F"
"443","072815-03",1,4,50,"car_implic","car_implic","car_control","implicature","implicature","target","distractor","R","car_control","N","7/28/2015","13:11",1023,4.46,4,"F"
"444","072815-03",1,4,51,"flower_control","flower_foil","flower_control","implicature","unambiguous","distractor","target","R","flower_control","Y","7/28/2015","13:11",1033,4.46,4,"F"
"445","072815-03",1,4,52,"banana_implic","banana_control","banana_implic","implicature","implicature","distractor","target","L","banana_control","N","7/28/2015","13:11",889,4.46,4,"F"
"446","072815-03",1,4,13,"bicycle_control","bicycle_foil","bicycle_control","implicature","unambiguous","distractor","target","R","bicycle_control","Y","7/28/2015","13:11",1204,4.46,4,"F"
"447","072815-03",1,4,14,"dog_implic","dog_implic","dog_control","implicature","implicature","target","distractor","R","dog_control","N","7/28/2015","13:11",1523,4.46,4,"F"
"448","072815-03",1,4,15,"flower_implic","flower_control","flower_implic","implicature","implicature","distractor","target","L","flower_control","N","7/28/2015","13:11",1306,4.46,4,"F"
"449","072815-03",1,4,16,"bird_control","bird_control","bird_foil","implicature","unambiguous","target","distractor","L","bird_control","Y","7/28/2015","13:11",1347,4.46,4,"F"
"450","072815-03",1,4,57,"teddybear_control","teddybear_control","teddybear_foil","implicature","unambiguous","target","distractor","L","teddybear_control","Y","7/28/2015","13:11",1270,4.46,4,"F"
"451","072815-03",1,4,58,"cup_implic","cup_control","cup_implic","implicature","implicature","distractor","target","L","cup_control","N","7/28/2015","13:11",889,4.46,4,"F"
"452","072815-03",1,4,59,"bicycle_implic","bicycle_implic","bicycle_control","implicature","implicature","target","distractor","R","bicycle_control","N","7/28/2015","13:11",1145,4.46,4,"F"
"453","072815-03",1,4,60,"cat_implic","cat_control","cat_implic","implicature","implicature","distractor","target","L","cat_control","N","7/28/2015","13:11",1001,4.46,4,"F"
"454","072815-03",1,4,1,"apple_pos","apple_pos","apple_inhib","inhibition","control","target","distractor","L","apple_pos","Y","7/28/2015","13:11",4015,4.46,4,"F"
"455","072815-03",1,4,2,"apple_pos","apple_inhib","apple_pos","inhibition","control","distractor","target","L","apple_inhib","N","7/28/2015","13:11",2054,4.46,4,"F"
"456","072815-03",1,4,3,"apple_pos","apple_inhib","apple_pos","inhibition","control","distractor","target","R","apple_pos","Y","7/28/2015","13:11",3267,4.46,4,"F"
"457","072815-03",1,4,4,"apple_pos","apple_pos","apple_inhib","inhibition","control","target","distractor","L","apple_pos","Y","7/28/2015","13:11",1218,4.46,4,"F"
"458","072815-03",1,4,5,"apple_pos","apple_pos","apple_inhib","inhibition","control","target","distractor","L","apple_pos","Y","7/28/2015","13:11",1261,4.46,4,"F"
"459","072815-03",1,4,6,"apple_pos","apple_pos","apple_inhib","inhibition","control","target","distractor","L","apple_pos","Y","7/28/2015","13:11",1794,4.46,4,"F"
"460","072815-03",1,4,7,"apple_inhib","apple_inhib","apple_pos","inhibition","inhib","target","distractor","L","apple_inhib","Y","7/28/2015","13:11",1697,4.46,4,"F"
"461","072815-03",1,4,8,"car_pos","car_pos","car_inhib","inhibition","control","target","distractor","L","car_pos","Y","7/28/2015","13:11",2038,4.46,4,"F"
"462","072815-03",1,4,9,"car_pos","car_inhib","car_pos","inhibition","control","distractor","target","R","car_pos","Y","7/28/2015","13:11",1271,4.46,4,"F"
"463","072815-03",1,4,10,"car_pos","car_inhib","car_pos","inhibition","control","distractor","target","R","car_pos","Y","7/28/2015","13:11",1164,4.46,4,"F"
"464","072815-03",1,4,11,"car_pos","car_inhib","car_pos","inhibition","control","distractor","target","R","car_pos","Y","7/28/2015","13:11",1097,4.46,4,"F"
"465","072815-03",1,4,12,"car_pos","car_pos","car_inhib","inhibition","control","target","distractor","L","car_pos","Y","7/28/2015","13:11",1132,4.46,4,"F"
"466","072815-03",1,4,13,"car_inhib","car_pos","car_inhib","inhibition","inhib","distractor","target","R","car_inhib","Y","7/28/2015","13:11",1189,4.46,4,"F"
"467","072815-03",1,4,14,"dog_pos","dog_pos","dog_inhib","inhibition","control","target","distractor","L","dog_pos","Y","7/28/2015","13:11",1176,4.46,4,"F"
"468","072815-03",1,4,15,"dog_pos","dog_pos","dog_inhib","inhibition","control","target","distractor","L","dog_pos","Y","7/28/2015","13:11",1000,4.46,4,"F"
"469","072815-03",1,4,16,"dog_pos","dog_pos","dog_inhib","inhibition","control","target","distractor","L","dog_pos","Y","7/28/2015","13:11",1266,4.46,4,"F"
"470","072815-03",1,4,17,"dog_pos","dog_pos","dog_inhib","inhibition","control","target","distractor","L","dog_pos","Y","7/28/2015","13:11",868,4.46,4,"F"
"471","072815-03",1,4,18,"dog_pos","dog_pos","dog_inhib","inhibition","control","target","distractor","L","dog_pos","Y","7/28/2015","13:11",1186,4.46,4,"F"
"472","072815-03",1,4,19,"dog_inhib","dog_inhib","dog_pos","inhibition","inhib","target","distractor","L","dog_inhib","Y","7/28/2015","13:11",1126,4.46,4,"F"
"473","072815-03",1,4,20,"teddybear_pos","teddybear_pos","teddybear_inhib","inhibition","control","target","distractor","L","teddybear_pos","Y","7/28/2015","13:11",1171,4.46,4,"F"
"474","072815-03",1,4,21,"teddybear_pos","teddybear_pos","teddybear_inhib","inhibition","control","target","distractor","L","teddybear_pos","Y","7/28/2015","13:11",1276,4.46,4,"F"
"475","072815-03",1,4,22,"teddybear_pos","teddybear_pos","teddybear_inhib","inhibition","control","target","distractor","L","teddybear_pos","Y","7/28/2015","13:11",976,4.46,4,"F"
"476","072815-03",1,4,23,"teddybear_pos","teddybear_inhib","teddybear_pos","inhibition","control","distractor","target","R","teddybear_pos","Y","7/28/2015","13:11",1476,4.46,4,"F"
"477","072815-03",1,4,24,"teddybear_pos","teddybear_pos","teddybear_inhib","inhibition","control","target","distractor","L","teddybear_pos","Y","7/28/2015","13:11",1020,4.46,4,"F"
"478","072815-03",1,4,25,"teddybear_pos","teddybear_inhib","teddybear_pos","inhibition","control","distractor","target","R","teddybear_pos","Y","7/28/2015","13:11",697,4.46,4,"F"
"479","072815-03",1,4,26,"teddybear_inhib","teddybear_pos","teddybear_inhib","inhibition","inhib","distractor","target","L","teddybear_pos","N","7/28/2015","13:11",736,4.46,4,"F"
"480","072815-03",1,4,27,"banana_pos","banana_pos","banana_inhib","inhibition","control","target","distractor","L","banana_pos","Y","7/28/2015","13:11",2017,4.46,4,"F"
"481","072815-03",1,4,28,"banana_pos","banana_pos","banana_inhib","inhibition","control","target","distractor","L","banana_pos","Y","7/28/2015","13:11",1096,4.46,4,"F"
"482","072815-03",1,4,29,"banana_pos","banana_inhib","banana_pos","inhibition","control","distractor","target","R","banana_pos","Y","7/28/2015","13:11",1098,4.46,4,"F"
"483","072815-03",1,4,30,"banana_pos","banana_pos","banana_inhib","inhibition","control","target","distractor","L","banana_pos","Y","7/28/2015","13:11",1016,4.46,4,"F"
"484","072815-03",1,4,31,"banana_pos","banana_pos","banana_inhib","inhibition","control","target","distractor","L","banana_pos","Y","7/28/2015","13:11",853,4.46,4,"F"
"485","072815-03",1,4,32,"banana_inhib","banana_pos","banana_inhib","inhibition","inhib","distractor","target","L","banana_pos","N","7/28/2015","13:11",555,4.46,4,"F"
"486","072815-03",1,4,33,"bicycle_pos","bicycle_inhib","bicycle_pos","inhibition","control","distractor","target","R","bicycle_pos","Y","7/28/2015","13:11",1290,4.46,4,"F"
"487","072815-03",1,4,34,"bicycle_pos","bicycle_pos","bicycle_inhib","inhibition","control","target","distractor","L","bicycle_pos","Y","7/28/2015","13:11",1205,4.46,4,"F"
"488","072815-03",1,4,35,"bicycle_pos","bicycle_pos","bicycle_inhib","inhibition","control","target","distractor","L","bicycle_pos","Y","7/28/2015","13:11",958,4.46,4,"F"
"489","072815-03",1,4,36,"bicycle_pos","bicycle_inhib","bicycle_pos","inhibition","control","distractor","target","R","bicycle_pos","Y","7/28/2015","13:11",969,4.46,4,"F"
"490","072815-03",1,4,37,"bicycle_pos","bicycle_inhib","bicycle_pos","inhibition","control","distractor","target","R","bicycle_pos","Y","7/28/2015","13:11",731,4.46,4,"F"
"491","072815-03",1,4,38,"bicycle_inhib","bicycle_inhib","bicycle_pos","inhibition","inhib","target","distractor","L","bicycle_inhib","Y","7/28/2015","13:11",1344,4.46,4,"F"
"492","072815-03",1,4,39,"cat_pos","cat_inhib","cat_pos","inhibition","control","distractor","target","R","cat_pos","Y","7/28/2015","13:11",1501,4.46,4,"F"
"493","072815-03",1,4,40,"cat_pos","cat_inhib","cat_pos","inhibition","control","distractor","target","R","cat_pos","Y","7/28/2015","13:11",875,4.46,4,"F"
"494","072815-03",1,4,41,"cat_pos","cat_pos","cat_inhib","inhibition","control","target","distractor","L","cat_pos","Y","7/28/2015","13:11",1530,4.46,4,"F"
"495","072815-03",1,4,42,"cat_pos","cat_inhib","cat_pos","inhibition","control","distractor","target","R","cat_pos","Y","7/28/2015","13:11",826,4.46,4,"F"
"496","072815-03",1,4,43,"cat_pos","cat_inhib","cat_pos","inhibition","control","distractor","target","R","cat_pos","Y","7/28/2015","13:11",737,4.46,4,"F"
"497","072815-03",1,4,44,"cat_inhib","cat_pos","cat_inhib","inhibition","inhib","distractor","target","L","cat_pos","N","7/28/2015","13:11",851,4.46,4,"F"
"498","072815-03",1,4,45,"flower_pos","flower_inhib","flower_pos","inhibition","control","distractor","target","R","flower_pos","Y","7/28/2015","13:11",2082,4.46,4,"F"
"499","072815-03",1,4,46,"flower_pos","flower_pos","flower_inhib","inhibition","control","target","distractor","L","flower_pos","Y","7/28/2015","13:11",832,4.46,4,"F"
"500","072815-03",1,4,47,"flower_pos","flower_inhib","flower_pos","inhibition","control","distractor","target","R","flower_pos","Y","7/28/2015","13:11",848,4.46,4,"F"
"501","072815-03",1,4,48,"flower_pos","flower_pos","flower_inhib","inhibition","control","target","distractor","L","flower_pos","Y","7/28/2015","13:11",698,4.46,4,"F"
"502","072815-03",1,4,49,"flower_pos","flower_inhib","flower_pos","inhibition","control","distractor","target","R","flower_pos","Y","7/28/2015","13:11",651,4.46,4,"F"
"503","072815-03",1,4,50,"flower_inhib","flower_pos","flower_inhib","inhibition","inhib","distractor","target","R","flower_inhib","Y","7/28/2015","13:11",1160,4.46,4,"F"
"504","072815-03",1,4,51,"cookie_pos","cookie_inhib","cookie_pos","inhibition","control","distractor","target","R","cookie_pos","Y","7/28/2015","13:11",1304,4.46,4,"F"
"505","072815-03",1,4,52,"cookie_pos","cookie_inhib","cookie_pos","inhibition","control","distractor","target","R","cookie_pos","Y","7/28/2015","13:11",985,4.46,4,"F"
"506","072815-03",1,4,53,"cookie_pos","cookie_inhib","cookie_pos","inhibition","control","distractor","target","R","cookie_pos","Y","7/28/2015","13:11",791,4.46,4,"F"
"507","072815-03",1,4,54,"cookie_pos","cookie_inhib","cookie_pos","inhibition","control","distractor","target","R","cookie_pos","Y","7/28/2015","13:11",659,4.46,4,"F"
"508","072815-03",1,4,55,"cookie_pos","cookie_inhib","cookie_pos","inhibition","control","distractor","target","R","cookie_pos","Y","7/28/2015","13:11",1299,4.46,4,"F"
"509","072815-03",1,4,56,"cookie_pos","cookie_inhib","cookie_pos","inhibition","control","distractor","target","R","cookie_pos","Y","7/28/2015","13:11",663,4.46,4,"F"
"510","072815-03",1,4,57,"cookie_inhib","cookie_pos","cookie_inhib","inhibition","inhib","distractor","target","R","cookie_inhib","Y","7/28/2015","13:11",1265,4.46,4,"F"
"511","072815-03",1,4,58,"lamp_pos","lamp_pos","lamp_inhib","inhibition","control","target","distractor","L","lamp_pos","Y","7/28/2015","13:11",1220,4.46,4,"F"
"512","072815-03",1,4,59,"lamp_pos","lamp_pos","lamp_inhib","inhibition","control","target","distractor","L","lamp_pos","Y","7/28/2015","13:11",785,4.46,4,"F"
"513","072815-03",1,4,60,"lamp_pos","lamp_inhib","lamp_pos","inhibition","control","distractor","target","R","lamp_pos","Y","7/28/2015","13:11",903,4.46,4,"F"
"514","072815-03",1,4,61,"lamp_pos","lamp_pos","lamp_inhib","inhibition","control","target","distractor","L","lamp_pos","Y","7/28/2015","13:11",774,4.46,4,"F"
"515","072815-03",1,4,62,"lamp_pos","lamp_inhib","lamp_pos","inhibition","control","distractor","target","R","lamp_pos","Y","7/28/2015","13:11",629,4.46,4,"F"
"516","072815-03",1,4,63,"lamp_inhib","lamp_inhib","lamp_pos","inhibition","inhib","target","distractor","L","lamp_inhib","Y","7/28/2015","13:11",996,4.46,4,"F"
"517","072815-03",1,4,64,"bird_pos","bird_pos","bird_inhib","inhibition","control","target","distractor","L","bird_pos","Y","7/28/2015","13:11",1137,4.46,4,"F"
"518","072815-03",1,4,65,"bird_pos","bird_pos","bird_inhib","inhibition","control","target","distractor","L","bird_pos","Y","7/28/2015","13:11",1025,4.46,4,"F"
"519","072815-03",1,4,66,"bird_pos","bird_inhib","bird_pos","inhibition","control","distractor","target","L","bird_inhib","N","7/28/2015","13:11",707,4.46,4,"F"
"520","072815-03",1,4,67,"bird_pos","bird_pos","bird_inhib","inhibition","control","target","distractor","L","bird_pos","Y","7/28/2015","13:11",726,4.46,4,"F"
"521","072815-03",1,4,68,"bird_pos","bird_pos","bird_inhib","inhibition","control","target","distractor","L","bird_pos","Y","7/28/2015","13:11",862,4.46,4,"F"
"522","072815-03",1,4,69,"bird_inhib","bird_pos","bird_inhib","inhibition","inhib","distractor","target","R","bird_inhib","Y","7/28/2015","13:11",1391,4.46,4,"F"
"523","072815-03",1,4,70,"cup_pos","cup_pos","cup_inhib","inhibition","control","target","distractor","L","cup_pos","Y","7/28/2015","13:11",1798,4.46,4,"F"
"524","072815-03",1,4,71,"cup_pos","cup_inhib","cup_pos","inhibition","control","distractor","target","L","cup_inhib","N","7/28/2015","13:11",1189,4.46,4,"F"
"525","072815-03",1,4,72,"cup_pos","cup_inhib","cup_pos","inhibition","control","distractor","target","L","cup_inhib","N","7/28/2015","13:11",1161,4.46,4,"F"
"526","072815-03",1,4,73,"cup_pos","cup_inhib","cup_pos","inhibition","control","distractor","target","R","cup_pos","Y","7/28/2015","13:11",1602,4.46,4,"F"
"527","072815-03",1,4,74,"cup_pos","cup_pos","cup_inhib","inhibition","control","target","distractor","L","cup_pos","Y","7/28/2015","13:11",1345,4.46,4,"F"
"528","072815-03",1,4,75,"cup_inhib","cup_inhib","cup_pos","inhibition","inhib","target","distractor","R","cup_pos","N","7/28/2015","13:11",650,4.46,4,"F"
"529","072815-03",1,4,1,"dog_neg","dog_pos","dog_neg","negation","negative","distractor","target","R","dog_neg","Y","7/28/2015","13:11",2477,4.46,4,"F"
"530","072815-03",1,4,2,"cat_neg","cat_pos","cat_neg","negation","negative","distractor","target","R","cat_neg","Y","7/28/2015","13:11",1548,4.46,4,"F"
"531","072815-03",1,4,3,"teddybear_pos","teddybear_neg","teddybear_pos","negation","positive","distractor","target","R","teddybear_pos","Y","7/28/2015","13:11",1521,4.46,4,"F"
"532","072815-03",1,4,4,"cookie_pos","cookie_neg","cookie_pos","negation","positive","distractor","target","R","cookie_pos","Y","7/28/2015","13:11",1205,4.46,4,"F"
"533","072815-03",1,4,5,"car_pos","car_neg","car_pos","negation","positive","distractor","target","R","car_pos","Y","7/28/2015","13:11",1288,4.46,4,"F"
"534","072815-03",1,4,6,"cup_pos","cup_pos","cup_neg","negation","positive","target","distractor","L","cup_pos","Y","7/28/2015","13:11",1446,4.46,4,"F"
"535","072815-03",1,4,7,"bicycle_neg","bicycle_pos","bicycle_neg","negation","negative","distractor","target","L","bicycle_pos","N","7/28/2015","13:11",1468,4.46,4,"F"
"536","072815-03",1,4,8,"lamp_neg","lamp_neg","lamp_pos","negation","negative","target","distractor","R","lamp_pos","N","7/28/2015","13:11",6955,4.46,4,"F"
"537","072815-03",1,4,9,"apple_neg","apple_neg","apple_pos","negation","negative","target","distractor","R","apple_pos","N","7/28/2015","13:11",1053,4.46,4,"F"
"538","072815-03",1,4,10,"bird_neg","bird_pos","bird_neg","negation","negative","distractor","target","R","bird_neg","Y","7/28/2015","13:11",1065,4.46,4,"F"
"539","072815-03",1,4,11,"flower_neg","flower_neg","flower_pos","negation","negative","target","distractor","L","flower_neg","Y","7/28/2015","13:11",1020,4.46,4,"F"
"540","072815-03",1,4,12,"banana_neg","banana_pos","banana_neg","negation","negative","distractor","target","R","banana_neg","Y","7/28/2015","13:11",957.000000000001,4.46,4,"F"
"541","072815-03",1,4,13,"flower_pos","flower_pos","flower_neg","negation","positive","target","distractor","L","flower_pos","Y","7/28/2015","13:11",1800,4.46,4,"F"
"542","072815-03",1,4,14,"bicycle_neg","bicycle_pos","bicycle_neg","negation","negative","distractor","target","R","bicycle_neg","Y","7/28/2015","13:11",1152,4.46,4,"F"
"543","072815-03",1,4,15,"cookie_pos","cookie_pos","cookie_neg","negation","positive","target","distractor","L","cookie_pos","Y","7/28/2015","13:11",2070,4.46,4,"F"
"544","072815-03",1,4,16,"cat_neg","cat_neg","cat_pos","negation","negative","target","distractor","L","cat_neg","Y","7/28/2015","13:11",1927,4.46,4,"F"
"545","072815-03",1,4,17,"lamp_neg","lamp_pos","lamp_neg","negation","negative","distractor","target","L","lamp_pos","N","7/28/2015","13:11",1574,4.46,4,"F"
"546","072815-03",1,4,18,"apple_neg","apple_neg","apple_pos","negation","negative","target","distractor","R","apple_pos","N","7/28/2015","13:11",1043,4.46,4,"F"
"547","072815-03",1,4,19,"bird_pos","bird_pos","bird_neg","negation","positive","target","distractor","L","bird_pos","Y","7/28/2015","13:11",1160,4.46,4,"F"
"548","072815-03",1,4,20,"cup_pos","cup_neg","cup_pos","negation","positive","distractor","target","R","cup_pos","Y","7/28/2015","13:11",1512,4.46,4,"F"
"549","072815-03",1,4,21,"teddybear_neg","teddybear_pos","teddybear_neg","negation","negative","distractor","target","L","teddybear_pos","N","7/28/2015","13:11",1347,4.46,4,"F"
"550","072815-03",1,4,22,"dog_neg","dog_neg","dog_pos","negation","negative","target","distractor","L","dog_neg","Y","7/28/2015","13:11",2907,4.46,4,"F"
"551","072815-03",1,4,23,"banana_pos","banana_neg","banana_pos","negation","positive","distractor","target","R","banana_pos","Y","7/28/2015","13:11",1790,4.46,4,"F"
"552","072815-03",1,4,24,"car_pos","car_neg","car_pos","negation","positive","distractor","target","R","car_pos","Y","7/28/2015","13:11",2283,4.46,4,"F"
"553","072815-03",1,4,25,"car_pos","car_pos","car_neg","negation","positive","target","distractor","L","car_pos","Y","7/28/2015","13:11",2276,4.46,4,"F"
"554","072815-03",1,4,26,"banana_neg","banana_neg","banana_pos","negation","negative","target","distractor","L","banana_neg","Y","7/28/2015","13:11",1987,4.46,4,"F"
"555","072815-03",1,4,27,"cat_pos","cat_pos","cat_neg","negation","positive","target","distractor","L","cat_pos","Y","7/28/2015","13:11",3671,4.46,4,"F"
"556","072815-03",1,4,28,"bird_pos","bird_neg","bird_pos","negation","positive","distractor","target","R","bird_pos","Y","7/28/2015","13:11",1313,4.46,4,"F"
"557","072815-03",1,4,29,"teddybear_pos","teddybear_neg","teddybear_pos","negation","positive","distractor","target","R","teddybear_pos","Y","7/28/2015","13:11",1485,4.46,4,"F"
"558","072815-03",1,4,30,"cookie_neg","cookie_pos","cookie_neg","negation","negative","distractor","target","R","cookie_neg","Y","7/28/2015","13:11",3391,4.46,4,"F"
"559","072815-03",1,4,31,"apple_neg","apple_neg","apple_pos","negation","negative","target","distractor","L","apple_neg","Y","7/28/2015","13:11",1247,4.46,4,"F"
"560","072815-03",1,4,32,"cup_neg","cup_pos","cup_neg","negation","negative","distractor","target","R","cup_neg","Y","7/28/2015","13:11",1253,4.46,4,"F"
"561","072815-03",1,4,33,"dog_neg","dog_pos","dog_neg","negation","negative","distractor","target","L","dog_pos","N","7/28/2015","13:11",1498,4.46,4,"F"
"562","072815-03",1,4,34,"bicycle_pos","bicycle_neg","bicycle_pos","negation","positive","distractor","target","R","bicycle_pos","Y","7/28/2015","13:11",1093,4.46,4,"F"
"563","072815-03",1,4,35,"flower_neg","flower_neg","flower_pos","negation","negative","target","distractor","R","flower_pos","N","7/28/2015","13:11",1028,4.46,4,"F"
"564","072815-03",1,4,36,"lamp_pos","lamp_neg","lamp_pos","negation","positive","distractor","target","R","lamp_pos","Y","7/28/2015","13:11",1753,4.46,4,"F"
"565","072815-03",1,4,37,"teddybear_pos","teddybear_neg","teddybear_pos","negation","positive","distractor","target","R","teddybear_pos","Y","7/28/2015","13:11",1281,4.46,4,"F"
"566","072815-03",1,4,38,"flower_pos","flower_pos","flower_neg","negation","positive","target","distractor","L","flower_pos","Y","7/28/2015","13:11",1071,4.46,4,"F"
"567","072815-03",1,4,53,"cookie_control","cookie_control","cookie_foil","implicature","unambiguous","target","distractor","L","cookie_control","Y","7/28/2015","13:11",988,4.46,4,"F"
"568","072815-03",1,4,54,"dog_implic","dog_implic","dog_control","implicature","implicature","target","distractor","R","dog_control","N","7/28/2015","13:11",798,4.46,4,"F"
"569","072815-03",1,4,55,"apple_implic","apple_control","apple_implic","implicature","implicature","distractor","target","L","apple_control","N","7/28/2015","13:11",905,4.46,4,"F"
"570","072815-03",1,4,56,"bird_control","bird_control","bird_foil","implicature","unambiguous","target","distractor","L","bird_control","Y","7/28/2015","13:11",957,4.46,4,"F"
"571","072815-03",1,4,43,"bicycle_neg","bicycle_pos","bicycle_neg","negation","negative","distractor","target","R","bicycle_neg","Y","7/28/2015","13:11",1678,4.46,4,"F"
"572","072815-03",1,4,44,"bird_neg","bird_pos","bird_neg","negation","negative","distractor","target","R","bird_neg","Y","7/28/2015","13:11",1343,4.46,4,"F"
"573","072815-03",1,4,45,"dog_neg","dog_pos","dog_neg","negation","negative","distractor","target","R","dog_neg","Y","7/28/2015","13:11",2019,4.46,4,"F"
"574","072815-03",1,4,46,"banana_neg","banana_pos","banana_neg","negation","negative","distractor","target","R","banana_neg","Y","7/28/2015","13:11",1189,4.46,4,"F"
"575","072815-03",1,4,47,"cookie_neg","cookie_pos","cookie_neg","negation","negative","distractor","target","R","cookie_neg","Y","7/28/2015","13:11",1123,4.46,4,"F"
"576","072815-03",1,4,48,"apple_neg","apple_pos","apple_neg","negation","negative","distractor","target","R","apple_neg","Y","7/28/2015","13:11",730.999999999998,4.46,4,"F"
"577","072815-03",1,4,49,"cup_pos","cup_pos","cup_neg","negation","positive","target","distractor","L","cup_pos","Y","7/28/2015","13:11",1617,4.46,4,"F"
"578","072815-03",1,4,50,"teddybear_neg","teddybear_pos","teddybear_neg","negation","negative","distractor","target","R","teddybear_neg","Y","7/28/2015","13:11",1737,4.46,4,"F"
"579","072815-03",1,4,51,"car_pos","car_neg","car_pos","negation","positive","distractor","target","R","car_pos","Y","7/28/2015","13:11",1214,4.46,4,"F"
"580","072815-03",1,4,52,"apple_neg","apple_neg","apple_pos","negation","negative","target","distractor","R","apple_pos","N","7/28/2015","13:11",1291,4.46,4,"F"
"581","072815-03",1,4,53,"dog_pos","dog_pos","dog_neg","negation","positive","target","distractor","L","dog_pos","Y","7/28/2015","13:11",2251,4.46,4,"F"
"582","072815-03",1,4,54,"banana_pos","banana_neg","banana_pos","negation","positive","distractor","target","R","banana_pos","Y","7/28/2015","13:11",1397,4.46,4,"F"
"583","072815-03",1,4,55,"bird_pos","bird_pos","bird_neg","negation","positive","target","distractor","L","bird_pos","Y","7/28/2015","13:11",1072,4.46,4,"F"
"584","072815-03",1,4,56,"lamp_pos","lamp_pos","lamp_neg","negation","positive","target","distractor","L","lamp_pos","Y","7/28/2015","13:11",1436,4.46,4,"F"
"585","072815-03",1,4,57,"bicycle_pos","bicycle_neg","bicycle_pos","negation","positive","distractor","target","R","bicycle_pos","Y","7/28/2015","13:11",1081,4.46,4,"F"
"586","072815-03",1,4,58,"cat_neg","cat_pos","cat_neg","negation","negative","distractor","target","L","cat_pos","N","7/28/2015","13:11",1264,4.46,4,"F"
"587","072815-03",1,4,59,"flower_pos","flower_neg","flower_pos","negation","positive","distractor","target","R","flower_pos","Y","7/28/2015","13:11",2505,4.46,4,"F"
"588","072815-03",1,4,60,"cookie_neg","cookie_pos","cookie_neg","negation","negative","distractor","target","L","cookie_pos","N","7/28/2015","13:11",1768,4.46,4,"F"
"589","072815-03",1,4,41,"lamp_pos","lamp_neg","lamp_pos","negation","positive","distractor","target","R","lamp_pos","Y","7/28/2015","13:11",1244,4.46,4,"F"
"590","072815-03",1,4,42,"cup_pos","cup_neg","cup_pos","negation","positive","distractor","target","R","cup_pos","Y","7/28/2015","13:11",935,4.46,4,"F"
"591","072815-03",1,4,39,"cat_pos","cat_neg","cat_pos","negation","positive","distractor","target","R","cat_pos","Y","7/28/2015","13:11",1427,4.46,4,"F"
"592","072815-03",1,4,40,"car_pos","car_neg","car_pos","negation","positive","distractor","target","R","car_pos","Y","7/28/2015","13:11",1225,4.46,4,"F"
"593","072815-04",2,5,1,"cat_implic","cat_implic","cat_control","implicature","implicature","target","distractor","L","cat_implic","Y","7/28/2015","13:54",3578,4.78,4,"M"
"594","072815-04",2,5,2,"bicycle_control","bicycle_foil","bicycle_control","implicature","unambiguous","distractor","target","R","bicycle_control","Y","7/28/2015","13:54",1747,4.78,4,"M"
"595","072815-04",2,5,3,"cup_implic","cup_implic","cup_control","implicature","implicature","target","distractor","R","cup_control","N","7/28/2015","13:54",1517,4.78,4,"M"
"596","072815-04",2,5,4,"teddybear_implic","teddybear_implic","teddybear_control","implicature","implicature","target","distractor","R","teddybear_control","N","7/28/2015","13:54",1371,4.78,4,"M"
"597","072815-04",2,5,5,"bird_implic","bird_control","bird_implic","implicature","implicature","distractor","target","R","bird_implic","Y","7/28/2015","13:54",1326,4.78,4,"M"
