"","subid","list","game.order","trial.num","word","leftpic","rightpic","game","trial.type","leftpic.type","rightpic.type","side.chosen","pic.chosen","response","date","timestamp","rt"
"1","1",2,4,1,"cat_control","cat_control","cat_foil","implicature","unambiguous","target","distractor","L","cat_control","Y","7/23/2015","12:17",1315
"2","1",2,4,2,"bicycle_control","bicycle_foil","bicycle_control","implicature","unambiguous","distractor","target","R","bicycle_control","Y","7/23/2015","12:17",1429
"3","1",2,4,3,"cup_control","cup_foil","cup_control","implicature","unambiguous","distractor","target","R","cup_control","Y","7/23/2015","12:17",915
"4","1",2,4,4,"teddybear_control","teddybear_foil","teddybear_control","implicature","unambiguous","distractor","target","R","teddybear_control","Y","7/23/2015","12:17",964
"5","1",2,4,5,"bird_control","bird_foil","bird_control","implicature","unambiguous","distractor","target","R","bird_control","Y","7/23/2015","12:17",724
"6","1",2,4,6,"apple_implic","apple_implic","apple_control","implicature","implicature","target","distractor","L","apple_implic","Y","7/23/2015","12:17",692
"7","1",2,4,7,"dog_control","dog_control","dog_foil","implicature","unambiguous","target","distractor","L","dog_control","Y","7/23/2015","12:17",812
"8","1",2,4,8,"cookie_control","cookie_foil","cookie_control","implicature","unambiguous","distractor","target","R","cookie_control","Y","7/23/2015","12:17",685
"9","1",2,4,9,"banana_control","banana_control","banana_foil","implicature","unambiguous","target","distractor","L","banana_control","Y","7/23/2015","12:17",827
"10","1",2,4,10,"flower_implic","flower_implic","flower_control","implicature","implicature","target","distractor","L","flower_implic","Y","7/23/2015","12:17",817
"11","1",2,4,11,"car_control","car_foil","car_control","implicature","unambiguous","distractor","target","R","car_control","Y","7/23/2015","12:17",731
"12","1",2,4,12,"lamp_control","lamp_foil","lamp_control","implicature","unambiguous","distractor","target","R","lamp_control","Y","7/23/2015","12:17",767
"13","1",2,4,13,"apple_implic","apple_implic","apple_control","implicature","implicature","target","distractor","L","apple_implic","Y","7/23/2015","12:17",662
"14","1",2,4,14,"dog_implic","dog_control","dog_implic","implicature","implicature","distractor","target","L","dog_control","N","7/23/2015","12:17",684
"15","1",2,4,15,"cup_implic","cup_implic","cup_control","implicature","implicature","target","distractor","L","cup_implic","Y","7/23/2015","12:17",625
"16","1",2,4,16,"teddybear_control","teddybear_foil","teddybear_control","implicature","unambiguous","distractor","target","R","teddybear_control","Y","7/23/2015","12:17",665
"17","1",2,4,17,"bicycle_implic","bicycle_implic","bicycle_control","implicature","implicature","target","distractor","L","bicycle_implic","Y","7/23/2015","12:17",686
"18","1",2,4,18,"flower_implic","flower_implic","flower_control","implicature","implicature","target","distractor","L","flower_implic","Y","7/23/2015","12:17",863
"19","1",2,4,19,"cat_implic","cat_implic","cat_control","implicature","implicature","target","distractor","L","cat_implic","Y","7/23/2015","12:17",629
"20","1",2,4,20,"car_control","car_control","car_foil","implicature","unambiguous","target","distractor","L","car_control","Y","7/23/2015","12:17",642
"21","1",2,4,21,"lamp_implic","lamp_implic","lamp_control","implicature","implicature","target","distractor","L","lamp_implic","Y","7/23/2015","12:17",653
"22","1",2,4,22,"banana_implic","banana_control","banana_implic","implicature","implicature","distractor","target","L","banana_control","N","7/23/2015","12:17",626
"23","1",2,4,23,"bird_control","bird_control","bird_foil","implicature","unambiguous","target","distractor","L","bird_control","Y","7/23/2015","12:17",585
"24","1",2,4,24,"cookie_control","cookie_control","cookie_foil","implicature","unambiguous","target","distractor","L","cookie_control","Y","7/23/2015","12:17",609
"25","1",2,4,25,"dog_control","dog_foil","dog_control","implicature","unambiguous","distractor","target","R","dog_control","Y","7/23/2015","12:17",592
"26","1",2,4,26,"lamp_implic","lamp_implic","lamp_control","implicature","implicature","target","distractor","L","lamp_implic","Y","7/23/2015","12:17",666
"27","1",2,4,27,"cookie_control","cookie_foil","cookie_control","implicature","unambiguous","distractor","target","R","cookie_control","Y","7/23/2015","12:17",625
"28","1",2,4,28,"car_implic","car_implic","car_control","implicature","implicature","target","distractor","R","car_control","N","7/23/2015","12:17",611
"29","1",2,4,29,"cup_control","cup_control","cup_foil","implicature","unambiguous","target","distractor","L","cup_control","Y","7/23/2015","12:17",624
"30","1",2,4,30,"bicycle_control","bicycle_foil","bicycle_control","implicature","unambiguous","distractor","target","R","bicycle_control","Y","7/23/2015","12:17",719
"31","1",2,4,31,"teddybear_implic","teddybear_control","teddybear_implic","implicature","implicature","distractor","target","R","teddybear_implic","Y","7/23/2015","12:17",1087
"32","1",2,4,32,"flower_control","flower_control","flower_foil","implicature","unambiguous","target","distractor","L","flower_control","Y","7/23/2015","12:17",706
"33","1",2,4,33,"cat_implic","cat_control","cat_implic","implicature","implicature","distractor","target","L","cat_control","N","7/23/2015","12:17",675
"34","1",2,4,34,"apple_control","apple_control","apple_foil","implicature","unambiguous","target","distractor","L","apple_control","Y","7/23/2015","12:17",587
"35","1",2,4,35,"banana_implic","banana_control","banana_implic","implicature","implicature","distractor","target","L","banana_control","N","7/23/2015","12:17",688
"36","1",2,4,36,"bird_implic","bird_implic","bird_control","implicature","implicature","target","distractor","L","bird_implic","Y","7/23/2015","12:17",625
"37","1",2,4,37,"teddybear_implic","teddybear_control","teddybear_implic","implicature","implicature","distractor","target","L","teddybear_control","N","7/23/2015","12:17",568
"38","1",2,4,38,"cup_control","cup_control","cup_foil","implicature","unambiguous","target","distractor","L","cup_control","Y","7/23/2015","12:17",583
"39","1",2,4,39,"car_control","car_control","car_foil","implicature","unambiguous","target","distractor","L","car_control","Y","7/23/2015","12:17",640
"40","1",2,4,40,"banana_control","banana_control","banana_foil","implicature","unambiguous","target","distractor","L","banana_control","Y","7/23/2015","12:17",673
"41","1",2,4,41,"lamp_control","lamp_control","lamp_foil","implicature","unambiguous","target","distractor","L","lamp_control","Y","7/23/2015","12:17",631
"42","1",2,4,42,"apple_control","apple_control","apple_foil","implicature","unambiguous","target","distractor","L","apple_control","Y","7/23/2015","12:17",633
"43","1",2,4,43,"cookie_implic","cookie_implic","cookie_control","implicature","implicature","target","distractor","L","cookie_implic","Y","7/23/2015","12:17",595
"44","1",2,4,44,"cat_implic","cat_control","cat_implic","implicature","implicature","distractor","target","L","cat_control","N","7/23/2015","12:17",588
"45","1",2,4,45,"bird_control","bird_foil","bird_control","implicature","unambiguous","distractor","target","L","bird_foil","N","7/23/2015","12:17",591
"46","1",2,4,46,"flower_control","flower_foil","flower_control","implicature","unambiguous","distractor","target","R","flower_control","Y","7/23/2015","12:17",967
"47","1",2,4,47,"dog_implic","dog_implic","dog_control","implicature","implicature","target","distractor","R","dog_control","N","7/23/2015","12:17",781
"48","1",2,4,48,"bicycle_control","bicycle_foil","bicycle_control","implicature","unambiguous","distractor","target","R","bicycle_control","Y","7/23/2015","12:17",751
"49","1",2,4,49,"bird_implic","bird_implic","bird_control","implicature","implicature","target","distractor","L","bird_implic","Y","7/23/2015","12:17",722
"50","1",2,4,50,"flower_implic","flower_implic","flower_control","implicature","implicature","target","distractor","L","flower_implic","Y","7/23/2015","12:17",765
"51","1",2,4,51,"car_control","car_foil","car_control","implicature","unambiguous","distractor","target","R","car_control","Y","7/23/2015","12:17",681
"52","1",2,4,52,"lamp_implic","lamp_implic","lamp_control","implicature","implicature","target","distractor","L","lamp_implic","Y","7/23/2015","12:17",736
"53","1",2,4,53,"bicycle_implic","bicycle_control","bicycle_implic","implicature","implicature","distractor","target","L","bicycle_control","N","7/23/2015","12:17",786
"54","1",2,4,54,"dog_implic","dog_control","dog_implic","implicature","implicature","distractor","target","L","dog_control","N","7/23/2015","12:17",804
"55","1",2,4,55,"teddybear_implic","teddybear_control","teddybear_implic","implicature","implicature","distractor","target","L","teddybear_control","N","7/23/2015","12:17",649
"56","1",2,4,56,"cookie_control","cookie_foil","cookie_control","implicature","unambiguous","distractor","target","R","cookie_control","Y","7/23/2015","12:17",698
"57","1",2,4,57,"cat_implic","cat_control","cat_implic","implicature","implicature","distractor","target","L","cat_control","N","7/23/2015","12:17",885
"58","1",2,4,58,"apple_control","apple_control","apple_foil","implicature","unambiguous","target","distractor","L","apple_control","Y","7/23/2015","12:17",598
"59","1",2,4,59,"cup_implic","cup_implic","cup_control","implicature","implicature","target","distractor","L","cup_implic","Y","7/23/2015","12:17",728
"60","1",2,4,60,"banana_control","banana_foil","banana_control","implicature","unambiguous","distractor","target","R","banana_control","Y","7/23/2015","12:17",704
"61","1",2,4,61,"lamp_control","lamp_control","lamp_foil","implicature","unambiguous","target","distractor","L","lamp_control","Y","7/23/2015","12:17",709
"62","1",2,4,62,"dog_implic","dog_implic","dog_control","implicature","implicature","target","distractor","L","dog_implic","Y","7/23/2015","12:17",578
"63","1",2,4,63,"bird_control","bird_foil","bird_control","implicature","unambiguous","distractor","target","R","bird_control","Y","7/23/2015","12:17",640
"64","1",2,4,64,"car_control","car_control","car_foil","implicature","unambiguous","target","distractor","L","car_control","Y","7/23/2015","12:17",627
"65","1",2,4,65,"flower_implic","flower_implic","flower_control","implicature","implicature","target","distractor","L","flower_implic","Y","7/23/2015","12:17",655
"66","1",2,4,66,"banana_control","banana_control","banana_foil","implicature","unambiguous","target","distractor","L","banana_control","Y","7/23/2015","12:17",640
"67","1",2,4,67,"cat_implic","cat_control","cat_implic","implicature","implicature","distractor","target","L","cat_control","N","7/23/2015","12:17",556
"68","1",2,4,68,"cup_control","cup_control","cup_foil","implicature","unambiguous","target","distractor","L","cup_control","Y","7/23/2015","12:17",496
"69","1",2,4,69,"apple_implic","apple_control","apple_implic","implicature","implicature","distractor","target","L","apple_control","N","7/23/2015","12:17",542
"70","1",2,4,70,"cookie_control","cookie_foil","cookie_control","implicature","unambiguous","distractor","target","R","cookie_control","Y","7/23/2015","12:17",909
"71","1",2,4,71,"teddybear_control","teddybear_control","teddybear_foil","implicature","unambiguous","target","distractor","L","teddybear_control","Y","7/23/2015","12:17",564
"72","1",2,4,72,"bicycle_implic","bicycle_implic","bicycle_control","implicature","implicature","target","distractor","L","bicycle_implic","Y","7/23/2015","12:17",786
"73","1",2,4,73,"cat_implic","cat_control","cat_implic","implicature","implicature","distractor","target","L","cat_control","N","7/23/2015","12:17",640
"74","1",2,4,74,"cup_control","cup_foil","cup_control","implicature","unambiguous","distractor","target","R","cup_control","Y","7/23/2015","12:17",640
"75","1",2,4,75,"car_implic","car_implic","car_control","implicature","implicature","target","distractor","L","car_implic","Y","7/23/2015","12:17",672
"76","1",2,4,76,"flower_control","flower_control","flower_foil","implicature","unambiguous","target","distractor","L","flower_control","Y","7/23/2015","12:17",705
"77","1",2,4,77,"cookie_control","cookie_control","cookie_foil","implicature","unambiguous","target","distractor","L","cookie_control","Y","7/23/2015","12:17",638
"78","1",2,4,78,"teddybear_implic","teddybear_implic","teddybear_control","implicature","implicature","target","distractor","R","teddybear_control","N","7/23/2015","12:17",627
"79","1",2,4,79,"bird_implic","bird_implic","bird_control","implicature","implicature","target","distractor","L","bird_implic","Y","7/23/2015","12:17",632
"80","1",2,4,80,"dog_control","dog_foil","dog_control","implicature","unambiguous","distractor","target","R","dog_control","Y","7/23/2015","12:17",654
"81","1",2,4,81,"bicycle_control","bicycle_foil","bicycle_control","implicature","unambiguous","distractor","target","R","bicycle_control","Y","7/23/2015","12:17",648
"82","1",2,4,82,"lamp_control","lamp_control","lamp_foil","implicature","unambiguous","target","distractor","L","lamp_control","Y","7/23/2015","12:17",614
"83","1",2,4,83,"apple_implic","apple_implic","apple_control","implicature","implicature","target","distractor","L","apple_implic","Y","7/23/2015","12:17",743
"84","1",2,4,84,"banana_control","banana_foil","banana_control","implicature","unambiguous","distractor","target","R","banana_control","Y","7/23/2015","12:17",675
"85","1",2,4,85,"car_control","car_control","car_foil","implicature","unambiguous","target","distractor","L","car_control","Y","7/23/2015","12:17",534
"86","1",2,4,86,"apple_implic","apple_control","apple_implic","implicature","implicature","distractor","target","L","apple_control","N","7/23/2015","12:17",607
"87","1",2,4,87,"banana_implic","banana_implic","banana_control","implicature","implicature","target","distractor","L","banana_implic","Y","7/23/2015","12:17",546
"88","1",2,4,88,"cat_control","cat_control","cat_foil","implicature","unambiguous","target","distractor","L","cat_control","Y","7/23/2015","12:17",500
"89","1",2,4,89,"cookie_implic","cookie_implic","cookie_control","implicature","implicature","target","distractor","L","cookie_implic","Y","7/23/2015","12:17",556
"90","1",2,4,90,"dog_implic","dog_implic","dog_control","implicature","implicature","target","distractor","L","dog_implic","Y","7/23/2015","12:17",563
"91","1",2,4,91,"flower_control","flower_control","flower_foil","implicature","unambiguous","target","distractor","L","flower_control","Y","7/23/2015","12:17",645
"92","1",2,4,92,"bird_implic","bird_implic","bird_control","implicature","implicature","target","distractor","L","bird_implic","Y","7/23/2015","12:17",622
"93","1",2,4,93,"teddybear_implic","teddybear_control","teddybear_implic","implicature","implicature","distractor","target","L","teddybear_control","N","7/23/2015","12:17",606
"94","1",2,4,94,"bicycle_implic","bicycle_control","bicycle_implic","implicature","implicature","distractor","target","L","bicycle_control","N","7/23/2015","12:17",499
"95","1",2,4,95,"lamp_implic","lamp_control","lamp_implic","implicature","implicature","distractor","target","R","lamp_implic","Y","7/23/2015","12:17",598
"96","1",2,4,96,"cup_control","cup_foil","cup_control","implicature","unambiguous","distractor","target","R","cup_control","Y","7/23/2015","12:17",687
"97","1",2,4,97,"teddybear_control","teddybear_control","teddybear_foil","implicature","unambiguous","target","distractor","L","teddybear_control","Y","7/23/2015","12:17",607
"98","1",2,4,98,"cup_implic","cup_implic","cup_control","implicature","implicature","target","distractor","L","cup_implic","Y","7/23/2015","12:17",564
"99","1",2,4,99,"bird_control","bird_foil","bird_control","implicature","unambiguous","distractor","target","R","bird_control","Y","7/23/2015","12:17",655
"100","1",2,4,100,"dog_implic","dog_control","dog_implic","implicature","implicature","distractor","target","L","dog_control","N","7/23/2015","12:17",658
"101","1",2,4,101,"bicycle_implic","bicycle_control","bicycle_implic","implicature","implicature","distractor","target","L","bicycle_control","N","7/23/2015","12:17",564
"102","1",2,4,102,"cat_implic","cat_control","cat_implic","implicature","implicature","distractor","target","L","cat_control","N","7/23/2015","12:17",532
"103","1",2,4,103,"car_implic","car_implic","car_control","implicature","implicature","target","distractor","L","car_implic","Y","7/23/2015","12:17",566
"104","1",2,4,104,"cookie_implic","cookie_implic","cookie_control","implicature","implicature","target","distractor","L","cookie_implic","Y","7/23/2015","12:17",485
"105","1",2,4,105,"banana_implic","banana_control","banana_implic","implicature","implicature","distractor","target","L","banana_control","N","7/23/2015","12:17",1054
"106","1",2,4,106,"lamp_control","lamp_foil","lamp_control","implicature","unambiguous","distractor","target","R","lamp_control","Y","7/23/2015","12:17",766
"107","1",2,4,107,"flower_implic","flower_implic","flower_control","implicature","implicature","target","distractor","L","flower_implic","Y","7/23/2015","12:17",576
"108","1",2,4,108,"apple_control","apple_control","apple_foil","implicature","unambiguous","target","distractor","L","apple_control","Y","7/23/2015","12:17",588
"109","1",2,4,109,"bicycle_control","bicycle_foil","bicycle_control","implicature","unambiguous","distractor","target","R","bicycle_control","Y","7/23/2015","12:17",615
"110","1",2,4,110,"cup_control","cup_foil","cup_control","implicature","unambiguous","distractor","target","R","cup_control","Y","7/23/2015","12:17",647
"111","1",2,4,111,"banana_control","banana_foil","banana_control","implicature","unambiguous","distractor","target","R","banana_control","Y","7/23/2015","12:17",648
"112","1",2,4,112,"bird_control","bird_foil","bird_control","implicature","unambiguous","distractor","target","L","bird_foil","N","7/23/2015","12:17",504
"113","1",2,4,113,"cookie_implic","cookie_implic","cookie_control","implicature","implicature","target","distractor","L","cookie_implic","Y","7/23/2015","12:17",672
"114","1",2,4,114,"lamp_control","lamp_control","lamp_foil","implicature","unambiguous","target","distractor","L","lamp_control","Y","7/23/2015","12:17",572
"115","1",2,4,115,"teddybear_implic","teddybear_control","teddybear_implic","implicature","implicature","distractor","target","L","teddybear_control","N","7/23/2015","12:17",633
"116","1",2,4,116,"car_implic","car_implic","car_control","implicature","implicature","target","distractor","R","car_control","N","7/23/2015","12:17",544
"117","1",2,4,117,"apple_implic","apple_implic","apple_control","implicature","implicature","target","distractor","R","apple_control","N","7/23/2015","12:17",595
"118","1",2,4,118,"cat_control","cat_control","cat_foil","implicature","unambiguous","target","distractor","L","cat_control","Y","7/23/2015","12:17",572
"119","1",2,4,119,"dog_implic","dog_implic","dog_control","implicature","implicature","target","distractor","L","dog_implic","Y","7/23/2015","12:17",602
"120","1",2,4,120,"flower_implic","flower_implic","flower_control","implicature","implicature","target","distractor","L","flower_implic","Y","7/23/2015","12:17",572
"121","1",2,4,1,"cup_pos","cup_pos","cup_inhib","inhibition","control","target","distractor","L","cup_pos","Y","7/23/2015","12:17",629
"122","1",2,4,2,"cup_pos","cup_inhib","cup_pos","inhibition","control","distractor","target","L","cup_inhib","N","7/23/2015","12:17",527
"123","1",2,4,3,"cup_pos","cup_pos","cup_inhib","inhibition","control","target","distractor","L","cup_pos","Y","7/23/2015","12:17",421
"124","1",2,4,4,"cup_pos","cup_pos","cup_inhib","inhibition","control","target","distractor","L","cup_pos","Y","7/23/2015","12:17",392
"125","1",2,4,5,"cup_pos","cup_pos","cup_inhib","inhibition","control","target","distractor","L","cup_pos","Y","7/23/2015","12:17",380
"126","1",2,4,6,"cup_inhib","cup_inhib","cup_pos","inhibition","inhib","target","distractor","R","cup_pos","N","7/23/2015","12:17",388
"127","1",2,4,7,"bird_pos","bird_pos","bird_inhib","inhibition","control","target","distractor","L","bird_pos","Y","7/23/2015","12:17",750
"128","1",2,4,8,"bird_pos","bird_pos","bird_inhib","inhibition","control","target","distractor","L","bird_pos","Y","7/23/2015","12:17",691
"129","1",2,4,9,"bird_pos","bird_pos","bird_inhib","inhibition","control","target","distractor","L","bird_pos","Y","7/23/2015","12:17",404
"130","1",2,4,10,"bird_pos","bird_inhib","bird_pos","inhibition","control","distractor","target","R","bird_pos","Y","7/23/2015","12:17",586
"131","1",2,4,11,"bird_pos","bird_pos","bird_inhib","inhibition","control","target","distractor","L","bird_pos","Y","7/23/2015","12:17",375
"132","1",2,4,12,"bird_pos","bird_inhib","bird_pos","inhibition","control","distractor","target","R","bird_pos","Y","7/23/2015","12:17",644
"133","1",2,4,13,"bird_inhib","bird_inhib","bird_pos","inhibition","inhib","target","distractor","L","bird_inhib","Y","7/23/2015","12:17",499
"134","1",2,4,14,"lamp_pos","lamp_pos","lamp_inhib","inhibition","control","target","distractor","R","lamp_inhib","N","7/23/2015","12:17",560
"135","1",2,4,15,"lamp_pos","lamp_pos","lamp_inhib","inhibition","control","target","distractor","L","lamp_pos","Y","7/23/2015","12:17",464
"136","1",2,4,16,"lamp_pos","lamp_pos","lamp_inhib","inhibition","control","target","distractor","L","lamp_pos","Y","7/23/2015","12:17",412
"137","1",2,4,17,"lamp_pos","lamp_inhib","lamp_pos","inhibition","control","distractor","target","R","lamp_pos","Y","7/23/2015","12:17",443
"138","1",2,4,18,"lamp_pos","lamp_inhib","lamp_pos","inhibition","control","distractor","target","R","lamp_pos","Y","7/23/2015","12:17",456
"139","1",2,4,19,"lamp_pos","lamp_inhib","lamp_pos","inhibition","control","distractor","target","R","lamp_pos","Y","7/23/2015","12:17",428
"140","1",2,4,20,"lamp_inhib","lamp_inhib","lamp_pos","inhibition","inhib","target","distractor","L","lamp_inhib","Y","7/23/2015","12:17",469
"141","1",2,4,21,"cookie_pos","cookie_inhib","cookie_pos","inhibition","control","distractor","target","L","cookie_inhib","N","7/23/2015","12:17",647
"142","1",2,4,22,"cookie_pos","cookie_inhib","cookie_pos","inhibition","control","distractor","target","R","cookie_pos","Y","7/23/2015","12:17",462
"143","1",2,4,23,"cookie_pos","cookie_pos","cookie_inhib","inhibition","control","target","distractor","L","cookie_pos","Y","7/23/2015","12:17",453
"144","1",2,4,24,"cookie_pos","cookie_inhib","cookie_pos","inhibition","control","distractor","target","R","cookie_pos","Y","7/23/2015","12:17",380
"145","1",2,4,25,"cookie_pos","cookie_pos","cookie_inhib","inhibition","control","target","distractor","L","cookie_pos","Y","7/23/2015","12:17",407
"146","1",2,4,26,"cookie_inhib","cookie_inhib","cookie_pos","inhibition","inhib","target","distractor","L","cookie_inhib","Y","7/23/2015","12:17",563
"147","1",2,4,27,"flower_pos","flower_pos","flower_inhib","inhibition","control","target","distractor","L","flower_pos","Y","7/23/2015","12:17",720
"148","1",2,4,28,"flower_pos","flower_inhib","flower_pos","inhibition","control","distractor","target","R","flower_pos","Y","7/23/2015","12:17",642
"149","1",2,4,29,"flower_pos","flower_pos","flower_inhib","inhibition","control","target","distractor","L","flower_pos","Y","7/23/2015","12:17",381
"150","1",2,4,30,"flower_pos","flower_inhib","flower_pos","inhibition","control","distractor","target","R","flower_pos","Y","7/23/2015","12:17",447
"151","1",2,4,31,"flower_pos","flower_pos","flower_inhib","inhibition","control","target","distractor","L","flower_pos","Y","7/23/2015","12:17",442
"152","1",2,4,32,"flower_pos","flower_inhib","flower_pos","inhibition","control","distractor","target","R","flower_pos","Y","7/23/2015","12:17",435
"153","1",2,4,33,"flower_inhib","flower_pos","flower_inhib","inhibition","inhib","distractor","target","R","flower_inhib","Y","7/23/2015","12:17",618
"154","1",2,4,34,"cat_pos","cat_pos","cat_inhib","inhibition","control","target","distractor","L","cat_pos","Y","7/23/2015","12:17",744
"155","1",2,4,35,"cat_pos","cat_inhib","cat_pos","inhibition","control","distractor","target","L","cat_inhib","N","7/23/2015","12:17",398
"156","1",2,4,36,"cat_pos","cat_pos","cat_inhib","inhibition","control","target","distractor","L","cat_pos","Y","7/23/2015","12:17",398
"157","1",2,4,37,"cat_pos","cat_pos","cat_inhib","inhibition","control","target","distractor","L","cat_pos","Y","7/23/2015","12:17",408
"158","1",2,4,38,"cat_pos","cat_inhib","cat_pos","inhibition","control","distractor","target","R","cat_pos","Y","7/23/2015","12:17",392
"159","1",2,4,39,"cat_inhib","cat_inhib","cat_pos","inhibition","inhib","target","distractor","L","cat_inhib","Y","7/23/2015","12:17",677
"160","1",2,4,40,"bicycle_pos","bicycle_pos","bicycle_inhib","inhibition","control","target","distractor","L","bicycle_pos","Y","7/23/2015","12:17",638
"161","1",2,4,41,"bicycle_pos","bicycle_pos","bicycle_inhib","inhibition","control","target","distractor","L","bicycle_pos","Y","7/23/2015","12:17",363
"162","1",2,4,42,"bicycle_pos","bicycle_pos","bicycle_inhib","inhibition","control","target","distractor","L","bicycle_pos","Y","7/23/2015","12:17",347
"163","1",2,4,43,"bicycle_pos","bicycle_pos","bicycle_inhib","inhibition","control","target","distractor","L","bicycle_pos","Y","7/23/2015","12:17",311
"164","1",2,4,44,"bicycle_pos","bicycle_pos","bicycle_inhib","inhibition","control","target","distractor","L","bicycle_pos","Y","7/23/2015","12:17",327
"165","1",2,4,45,"bicycle_inhib","bicycle_inhib","bicycle_pos","inhibition","inhib","target","distractor","R","bicycle_pos","N","7/23/2015","12:17",438
"166","1",2,4,46,"banana_pos","banana_pos","banana_inhib","inhibition","control","target","distractor","L","banana_pos","Y","7/23/2015","12:17",1555
"167","1",2,4,47,"banana_pos","banana_pos","banana_inhib","inhibition","control","target","distractor","L","banana_pos","Y","7/23/2015","12:17",436
"168","1",2,4,48,"banana_pos","banana_inhib","banana_pos","inhibition","control","distractor","target","R","banana_pos","Y","7/23/2015","12:17",452
"169","1",2,4,49,"banana_pos","banana_pos","banana_inhib","inhibition","control","target","distractor","L","banana_pos","Y","7/23/2015","12:17",368
"170","1",2,4,50,"banana_pos","banana_inhib","banana_pos","inhibition","control","distractor","target","R","banana_pos","Y","7/23/2015","12:17",404
"171","1",2,4,51,"banana_inhib","banana_pos","banana_inhib","inhibition","inhib","distractor","target","L","banana_pos","N","7/23/2015","12:17",450
"172","1",2,4,52,"teddybear_pos","teddybear_inhib","teddybear_pos","inhibition","control","distractor","target","R","teddybear_pos","Y","7/23/2015","12:17",871
"173","1",2,4,53,"teddybear_pos","teddybear_inhib","teddybear_pos","inhibition","control","distractor","target","R","teddybear_pos","Y","7/23/2015","12:17",412
"174","1",2,4,54,"teddybear_pos","teddybear_inhib","teddybear_pos","inhibition","control","distractor","target","R","teddybear_pos","Y","7/23/2015","12:17",404
"175","1",2,4,55,"teddybear_pos","teddybear_pos","teddybear_inhib","inhibition","control","target","distractor","L","teddybear_pos","Y","7/23/2015","12:17",427
"176","1",2,4,56,"teddybear_pos","teddybear_pos","teddybear_inhib","inhibition","control","target","distractor","L","teddybear_pos","Y","7/23/2015","12:17",495
"177","1",2,4,57,"teddybear_pos","teddybear_pos","teddybear_inhib","inhibition","control","target","distractor","L","teddybear_pos","Y","7/23/2015","12:17",521
"178","1",2,4,58,"teddybear_inhib","teddybear_inhib","teddybear_pos","inhibition","inhib","target","distractor","R","teddybear_pos","N","7/23/2015","12:17",603
"179","1",2,4,59,"dog_pos","dog_inhib","dog_pos","inhibition","control","distractor","target","R","dog_pos","Y","7/23/2015","12:17",1841
"180","1",2,4,60,"dog_pos","dog_pos","dog_inhib","inhibition","control","target","distractor","L","dog_pos","Y","7/23/2015","12:17",466
"181","1",2,4,61,"dog_pos","dog_inhib","dog_pos","inhibition","control","distractor","target","R","dog_pos","Y","7/23/2015","12:17",419
"182","1",2,4,62,"dog_pos","dog_inhib","dog_pos","inhibition","control","distractor","target","R","dog_pos","Y","7/23/2015","12:17",451
"183","1",2,4,63,"dog_pos","dog_pos","dog_inhib","inhibition","control","target","distractor","L","dog_pos","Y","7/23/2015","12:17",428
"184","1",2,4,64,"dog_pos","dog_pos","dog_inhib","inhibition","control","target","distractor","L","dog_pos","Y","7/23/2015","12:17",445
"185","1",2,4,65,"dog_inhib","dog_pos","dog_inhib","inhibition","inhib","distractor","target","R","dog_inhib","Y","7/23/2015","12:17",769
"186","1",2,4,66,"car_pos","car_inhib","car_pos","inhibition","control","distractor","target","R","car_pos","Y","7/23/2015","12:17",826
"187","1",2,4,67,"car_pos","car_inhib","car_pos","inhibition","control","distractor","target","R","car_pos","Y","7/23/2015","12:17",585
"188","1",2,4,68,"car_pos","car_inhib","car_pos","inhibition","control","distractor","target","R","car_pos","Y","7/23/2015","12:17",364
"189","1",2,4,69,"car_pos","car_pos","car_inhib","inhibition","control","target","distractor","L","car_pos","Y","7/23/2015","12:17",455
"190","1",2,4,70,"car_pos","car_pos","car_inhib","inhibition","control","target","distractor","L","car_pos","Y","7/23/2015","12:17",456
"191","1",2,4,71,"car_pos","car_inhib","car_pos","inhibition","control","distractor","target","R","car_pos","Y","7/23/2015","12:17",432
"192","1",2,4,72,"car_inhib","car_inhib","car_pos","inhibition","inhib","target","distractor","L","car_inhib","Y","7/23/2015","12:17",943
"193","1",2,4,73,"apple_pos","apple_pos","apple_inhib","inhibition","control","target","distractor","L","apple_pos","Y","7/23/2015","12:17",848
"194","1",2,4,74,"apple_pos","apple_pos","apple_inhib","inhibition","control","target","distractor","L","apple_pos","Y","7/23/2015","12:17",353
"195","1",2,4,75,"apple_pos","apple_inhib","apple_pos","inhibition","control","distractor","target","R","apple_pos","Y","7/23/2015","12:17",411
"196","1",2,4,76,"apple_pos","apple_pos","apple_inhib","inhibition","control","target","distractor","L","apple_pos","Y","7/23/2015","12:17",360
"197","1",2,4,77,"apple_pos","apple_pos","apple_inhib","inhibition","control","target","distractor","L","apple_pos","Y","7/23/2015","12:17",382
"198","1",2,4,78,"apple_inhib","apple_inhib","apple_pos","inhibition","inhib","target","distractor","L","apple_inhib","Y","7/23/2015","12:17",721
"199","1",2,4,79,"car_pos","car_inhib","car_pos","inhibition","control","distractor","target","R","car_pos","Y","7/23/2015","12:17",600
"200","1",2,4,80,"car_pos","car_pos","car_inhib","inhibition","control","target","distractor","L","car_pos","Y","7/23/2015","12:17",329
"201","1",2,4,81,"car_pos","car_inhib","car_pos","inhibition","control","distractor","target","R","car_pos","Y","7/23/2015","12:17",411
"202","1",2,4,82,"car_pos","car_pos","car_inhib","inhibition","control","target","distractor","L","car_pos","Y","7/23/2015","12:17",326
"203","1",2,4,83,"car_pos","car_inhib","car_pos","inhibition","control","distractor","target","R","car_pos","Y","7/23/2015","12:17",345
"204","1",2,4,84,"car_pos","car_inhib","car_pos","inhibition","control","distractor","target","L","car_inhib","N","7/23/2015","12:17",356
"205","1",2,4,85,"car_inhib","car_pos","car_inhib","inhibition","inhib","distractor","target","R","car_inhib","Y","7/23/2015","12:17",945
"206","1",2,4,86,"bird_pos","bird_inhib","bird_pos","inhibition","control","distractor","target","R","bird_pos","Y","7/23/2015","12:17",856
"207","1",2,4,87,"bird_pos","bird_pos","bird_inhib","inhibition","control","target","distractor","L","bird_pos","Y","7/23/2015","12:17",368
"208","1",2,4,88,"bird_pos","bird_pos","bird_inhib","inhibition","control","target","distractor","L","bird_pos","Y","7/23/2015","12:17",382
"209","1",2,4,89,"bird_pos","bird_inhib","bird_pos","inhibition","control","distractor","target","R","bird_pos","Y","7/23/2015","12:17",391
"210","1",2,4,90,"bird_pos","bird_inhib","bird_pos","inhibition","control","distractor","target","R","bird_pos","Y","7/23/2015","12:17",439
"211","1",2,4,91,"bird_inhib","bird_inhib","bird_pos","inhibition","inhib","target","distractor","R","bird_pos","N","7/23/2015","12:17",512
"212","1",2,4,92,"dog_pos","dog_inhib","dog_pos","inhibition","control","distractor","target","R","dog_pos","Y","7/23/2015","12:17",674
"213","1",2,4,93,"dog_pos","dog_pos","dog_inhib","inhibition","control","target","distractor","L","dog_pos","Y","7/23/2015","12:17",397
"214","1",2,4,94,"dog_pos","dog_pos","dog_inhib","inhibition","control","target","distractor","L","dog_pos","Y","7/23/2015","12:17",420
"215","1",2,4,95,"dog_pos","dog_inhib","dog_pos","inhibition","control","distractor","target","R","dog_pos","Y","7/23/2015","12:17",395
"216","1",2,4,96,"dog_pos","dog_pos","dog_inhib","inhibition","control","target","distractor","L","dog_pos","Y","7/23/2015","12:17",469
"217","1",2,4,97,"dog_pos","dog_inhib","dog_pos","inhibition","control","distractor","target","L","dog_inhib","N","7/23/2015","12:17",413
"218","1",2,4,98,"dog_inhib","dog_pos","dog_inhib","inhibition","inhib","distractor","target","R","dog_inhib","Y","7/23/2015","12:17",783
"219","1",2,4,99,"apple_pos","apple_pos","apple_inhib","inhibition","control","target","distractor","L","apple_pos","Y","7/23/2015","12:17",825
"220","1",2,4,100,"apple_pos","apple_inhib","apple_pos","inhibition","control","distractor","target","R","apple_pos","Y","7/23/2015","12:17",422
"221","1",2,4,101,"apple_pos","apple_inhib","apple_pos","inhibition","control","distractor","target","R","apple_pos","Y","7/23/2015","12:17",432
"222","1",2,4,102,"apple_pos","apple_pos","apple_inhib","inhibition","control","target","distractor","L","apple_pos","Y","7/23/2015","12:17",585
"223","1",2,4,103,"apple_pos","apple_pos","apple_inhib","inhibition","control","target","distractor","L","apple_pos","Y","7/23/2015","12:17",414
"224","1",2,4,104,"apple_inhib","apple_pos","apple_inhib","inhibition","inhib","distractor","target","R","apple_inhib","Y","7/23/2015","12:17",647
"225","1",2,4,105,"flower_pos","flower_pos","flower_inhib","inhibition","control","target","distractor","L","flower_pos","Y","7/23/2015","12:17",554
"226","1",2,4,106,"flower_pos","flower_pos","flower_inhib","inhibition","control","target","distractor","L","flower_pos","Y","7/23/2015","12:17",344
"227","1",2,4,107,"flower_pos","flower_inhib","flower_pos","inhibition","control","distractor","target","R","flower_pos","Y","7/23/2015","12:17",403
"228","1",2,4,108,"flower_pos","flower_pos","flower_inhib","inhibition","control","target","distractor","L","flower_pos","Y","7/23/2015","12:17",398
"229","1",2,4,109,"flower_pos","flower_inhib","flower_pos","inhibition","control","distractor","target","R","flower_pos","Y","7/23/2015","12:17",420
"230","1",2,4,110,"flower_pos","flower_pos","flower_inhib","inhibition","control","target","distractor","L","flower_pos","Y","7/23/2015","12:17",386
"231","1",2,4,111,"flower_inhib","flower_inhib","flower_pos","inhibition","inhib","target","distractor","L","flower_inhib","Y","7/23/2015","12:17",566
"232","1",2,4,112,"teddybear_pos","teddybear_pos","teddybear_inhib","inhibition","control","target","distractor","L","teddybear_pos","Y","7/23/2015","12:17",422
"233","1",2,4,113,"teddybear_pos","teddybear_inhib","teddybear_pos","inhibition","control","distractor","target","R","teddybear_pos","Y","7/23/2015","12:17",429
"234","1",2,4,114,"teddybear_pos","teddybear_inhib","teddybear_pos","inhibition","control","distractor","target","R","teddybear_pos","Y","7/23/2015","12:17",507
"235","1",2,4,115,"teddybear_pos","teddybear_pos","teddybear_inhib","inhibition","control","target","distractor","L","teddybear_pos","Y","7/23/2015","12:17",414
"236","1",2,4,116,"teddybear_pos","teddybear_pos","teddybear_inhib","inhibition","control","target","distractor","L","teddybear_pos","Y","7/23/2015","12:17",395
"237","1",2,4,117,"teddybear_pos","teddybear_pos","teddybear_inhib","inhibition","control","target","distractor","L","teddybear_pos","Y","7/23/2015","12:17",460
"238","1",2,4,118,"teddybear_inhib","teddybear_inhib","teddybear_pos","inhibition","inhib","target","distractor","L","teddybear_inhib","Y","7/23/2015","12:17",640
"239","1",2,4,119,"cat_pos","cat_pos","cat_inhib","inhibition","control","target","distractor","L","cat_pos","Y","7/23/2015","12:17",711
"240","1",2,4,120,"cat_pos","cat_pos","cat_inhib","inhibition","control","target","distractor","L","cat_pos","Y","7/23/2015","12:17",373
"241","1",2,4,121,"cat_pos","cat_inhib","cat_pos","inhibition","control","distractor","target","R","cat_pos","Y","7/23/2015","12:17",425
"242","1",2,4,122,"cat_pos","cat_inhib","cat_pos","inhibition","control","distractor","target","L","cat_inhib","N","7/23/2015","12:17",307
"243","1",2,4,123,"cat_pos","cat_inhib","cat_pos","inhibition","control","distractor","target","R","cat_pos","Y","7/23/2015","12:17",362
"244","1",2,4,124,"cat_inhib","cat_pos","cat_inhib","inhibition","inhib","distractor","target","L","cat_pos","N","7/23/2015","12:17",458
"245","1",2,4,125,"lamp_pos","lamp_inhib","lamp_pos","inhibition","control","distractor","target","R","lamp_pos","Y","7/23/2015","12:17",779
"246","1",2,4,126,"lamp_pos","lamp_inhib","lamp_pos","inhibition","control","distractor","target","R","lamp_pos","Y","7/23/2015","12:17",322
"247","1",2,4,127,"lamp_pos","lamp_inhib","lamp_pos","inhibition","control","distractor","target","R","lamp_pos","Y","7/23/2015","12:17",397
"248","1",2,4,128,"lamp_pos","lamp_inhib","lamp_pos","inhibition","control","distractor","target","R","lamp_pos","Y","7/23/2015","12:17",408
"249","1",2,4,129,"lamp_pos","lamp_inhib","lamp_pos","inhibition","control","distractor","target","R","lamp_pos","Y","7/23/2015","12:17",346
"250","1",2,4,130,"lamp_pos","lamp_inhib","lamp_pos","inhibition","control","distractor","target","R","lamp_pos","Y","7/23/2015","12:17",328
"251","1",2,4,131,"lamp_inhib","lamp_pos","lamp_inhib","inhibition","inhib","distractor","target","L","lamp_pos","N","7/23/2015","12:17",383
"252","1",2,4,132,"bicycle_pos","bicycle_pos","bicycle_inhib","inhibition","control","target","distractor","L","bicycle_pos","Y","7/23/2015","12:17",1008
"253","1",2,4,133,"bicycle_pos","bicycle_pos","bicycle_inhib","inhibition","control","target","distractor","L","bicycle_pos","Y","7/23/2015","12:17",457
"254","1",2,4,134,"bicycle_pos","bicycle_inhib","bicycle_pos","inhibition","control","distractor","target","R","bicycle_pos","Y","7/23/2015","12:17",423
"255","1",2,4,135,"bicycle_pos","bicycle_inhib","bicycle_pos","inhibition","control","distractor","target","R","bicycle_pos","Y","7/23/2015","12:17",407
"256","1",2,4,136,"bicycle_pos","bicycle_pos","bicycle_inhib","inhibition","control","target","distractor","L","bicycle_pos","Y","7/23/2015","12:17",426
"257","1",2,4,137,"bicycle_pos","bicycle_inhib","bicycle_pos","inhibition","control","distractor","target","R","bicycle_pos","Y","7/23/2015","12:17",461
"258","1",2,4,138,"bicycle_inhib","bicycle_pos","bicycle_inhib","inhibition","inhib","distractor","target","R","bicycle_inhib","Y","7/23/2015","12:17",600
"259","1",2,4,139,"cup_pos","cup_pos","cup_inhib","inhibition","control","target","distractor","L","cup_pos","Y","7/23/2015","12:17",804
"260","1",2,4,140,"cup_pos","cup_pos","cup_inhib","inhibition","control","target","distractor","L","cup_pos","Y","7/23/2015","12:17",471
"261","1",2,4,141,"cup_pos","cup_inhib","cup_pos","inhibition","control","distractor","target","R","cup_pos","Y","7/23/2015","12:17",406
"262","1",2,4,142,"cup_pos","cup_pos","cup_inhib","inhibition","control","target","distractor","L","cup_pos","Y","7/23/2015","12:17",278
"263","1",2,4,143,"cup_pos","cup_inhib","cup_pos","inhibition","control","distractor","target","R","cup_pos","Y","7/23/2015","12:17",355
"264","1",2,4,144,"cup_inhib","cup_pos","cup_inhib","inhibition","inhib","distractor","target","L","cup_pos","N","7/23/2015","12:17",324
"265","1",2,4,145,"banana_pos","banana_inhib","banana_pos","inhibition","control","distractor","target","R","banana_pos","Y","7/23/2015","12:17",1227
"266","1",2,4,146,"banana_pos","banana_pos","banana_inhib","inhibition","control","target","distractor","L","banana_pos","Y","7/23/2015","12:17",493
"267","1",2,4,147,"banana_pos","banana_inhib","banana_pos","inhibition","control","distractor","target","R","banana_pos","Y","7/23/2015","12:17",393
"268","1",2,4,148,"banana_pos","banana_inhib","banana_pos","inhibition","control","distractor","target","R","banana_pos","Y","7/23/2015","12:17",540
"269","1",2,4,149,"banana_pos","banana_pos","banana_inhib","inhibition","control","target","distractor","L","banana_pos","Y","7/23/2015","12:17",440
"270","1",2,4,150,"banana_inhib","banana_inhib","banana_pos","inhibition","inhib","target","distractor","L","banana_inhib","Y","7/23/2015","12:17",511
"271","1",2,4,151,"cookie_pos","cookie_pos","cookie_inhib","inhibition","control","target","distractor","L","cookie_pos","Y","7/23/2015","12:17",383
"272","1",2,4,152,"cookie_pos","cookie_pos","cookie_inhib","inhibition","control","target","distractor","L","cookie_pos","Y","7/23/2015","12:17",343
"273","1",2,4,153,"cookie_pos","cookie_pos","cookie_inhib","inhibition","control","target","distractor","L","cookie_pos","Y","7/23/2015","12:17",358
"274","1",2,4,154,"cookie_pos","cookie_inhib","cookie_pos","inhibition","control","distractor","target","R","cookie_pos","Y","7/23/2015","12:17",413
"275","1",2,4,155,"cookie_pos","cookie_inhib","cookie_pos","inhibition","control","distractor","target","R","cookie_pos","Y","7/23/2015","12:17",461
"276","1",2,4,156,"cookie_pos","cookie_pos","cookie_inhib","inhibition","control","target","distractor","L","cookie_pos","Y","7/23/2015","12:17",379
"277","1",2,4,157,"cookie_inhib","cookie_pos","cookie_inhib","inhibition","inhib","distractor","target","R","cookie_inhib","Y","7/23/2015","12:17",592
"278","1",2,4,1,"cookie_pos","cookie_neg","cookie_pos","negation","positive","distractor","target","R","cookie_pos","Y","7/23/2015","12:17",843
"279","1",2,4,2,"flower_neg","flower_neg","flower_pos","negation","negative","target","distractor","L","flower_neg","Y","7/23/2015","12:17",1003
"280","1",2,4,3,"cat_pos","cat_pos","cat_neg","negation","positive","target","distractor","L","cat_pos","Y","7/23/2015","12:17",1081
"281","1",2,4,4,"bicycle_pos","bicycle_pos","bicycle_neg","negation","positive","target","distractor","L","bicycle_pos","Y","7/23/2015","12:17",781
"282","1",2,4,5,"lamp_pos","lamp_neg","lamp_pos","negation","positive","distractor","target","L","lamp_neg","N","7/23/2015","12:17",586
"283","1",2,4,6,"bird_neg","bird_pos","bird_neg","negation","negative","distractor","target","R","bird_neg","Y","7/23/2015","12:17",778
"284","1",2,4,7,"banana_neg","banana_neg","banana_pos","negation","negative","target","distractor","L","banana_neg","Y","7/23/2015","12:17",1072
"285","1",2,4,8,"dog_pos","dog_pos","dog_neg","negation","positive","target","distractor","L","dog_pos","Y","7/23/2015","12:17",728
"286","1",2,4,9,"apple_neg","apple_pos","apple_neg","negation","negative","distractor","target","R","apple_neg","Y","7/23/2015","12:17",543.999999999998
"287","1",2,4,10,"car_neg","car_pos","car_neg","negation","negative","distractor","target","R","car_neg","Y","7/23/2015","12:17",598
"288","1",2,4,11,"teddybear_neg","teddybear_neg","teddybear_pos","negation","negative","target","distractor","L","teddybear_neg","Y","7/23/2015","12:17",684.999999999998
"289","1",2,4,12,"cup_neg","cup_pos","cup_neg","negation","negative","distractor","target","R","cup_neg","Y","7/23/2015","12:17",573.000000000001
"290","1",2,4,13,"apple_pos","apple_neg","apple_pos","negation","positive","distractor","target","L","apple_neg","N","7/23/2015","12:17",1016
"291","1",2,4,14,"cookie_pos","cookie_neg","cookie_pos","negation","positive","distractor","target","R","cookie_pos","Y","7/23/2015","12:17",1153
"292","1",2,4,15,"banana_pos","banana_neg","banana_pos","negation","positive","distractor","target","R","banana_pos","Y","7/23/2015","12:17",723
"293","1",2,4,16,"dog_pos","dog_neg","dog_pos","negation","positive","distractor","target","R","dog_pos","Y","7/23/2015","12:17",862
"294","1",2,4,17,"bird_neg","bird_pos","bird_neg","negation","negative","distractor","target","R","bird_neg","Y","7/23/2015","12:17",759
"295","1",2,4,18,"bicycle_neg","bicycle_neg","bicycle_pos","negation","negative","target","distractor","L","bicycle_neg","Y","7/23/2015","12:17",1004
"296","1",2,4,19,"cup_neg","cup_pos","cup_neg","negation","negative","distractor","target","R","cup_neg","Y","7/23/2015","12:17",604.000000000001
"297","1",2,4,20,"lamp_neg","lamp_pos","lamp_neg","negation","negative","distractor","target","R","lamp_neg","Y","7/23/2015","12:17",707.999999999997
"298","1",2,4,21,"car_pos","car_neg","car_pos","negation","positive","distractor","target","R","car_pos","Y","7/23/2015","12:17",837
"299","1",2,4,22,"cat_pos","cat_pos","cat_neg","negation","positive","target","distractor","L","cat_pos","Y","7/23/2015","12:17",934
"300","1",2,4,23,"flower_pos","flower_pos","flower_neg","negation","positive","target","distractor","L","flower_pos","Y","7/23/2015","12:17",587
"301","1",2,4,25,"lamp_neg","lamp_neg","lamp_pos","negation","negative","target","distractor","L","lamp_neg","Y","7/23/2015","12:17",539.999999999997
"302","1",2,4,24,"teddybear_neg","teddybear_neg","teddybear_pos","negation","negative","target","distractor","L","teddybear_neg","Y","7/23/2015","12:17",649.999999999998
"303","1",2,4,26,"flower_pos","flower_neg","flower_pos","negation","positive","distractor","target","R","flower_pos","Y","7/23/2015","12:17",888
"304","1",2,4,27,"bicycle_pos","bicycle_pos","bicycle_neg","negation","positive","target","distractor","L","bicycle_pos","Y","7/23/2015","12:17",542
"305","1",2,4,28,"dog_pos","dog_neg","dog_pos","negation","positive","distractor","target","R","dog_pos","Y","7/23/2015","12:17",602
"306","1",2,4,29,"cup_pos","cup_pos","cup_neg","negation","positive","target","distractor","L","cup_pos","Y","7/23/2015","12:17",554
"307","1",2,4,30,"apple_pos","apple_pos","apple_neg","negation","positive","target","distractor","L","apple_pos","Y","7/23/2015","12:17",579
"308","1",2,4,31,"cookie_neg","cookie_neg","cookie_pos","negation","negative","target","distractor","L","cookie_neg","Y","7/23/2015","12:17",547
"309","1",2,4,32,"teddybear_neg","teddybear_neg","teddybear_pos","negation","negative","target","distractor","L","teddybear_neg","Y","7/23/2015","12:17",720.999999999998
"310","1",2,4,33,"bird_neg","bird_pos","bird_neg","negation","negative","distractor","target","R","bird_neg","Y","7/23/2015","12:17",550
"311","1",2,4,34,"cat_pos","cat_pos","cat_neg","negation","positive","target","distractor","L","cat_pos","Y","7/23/2015","12:17",655
"312","1",2,4,35,"banana_neg","banana_pos","banana_neg","negation","negative","distractor","target","R","banana_neg","Y","7/23/2015","12:17",573.000000000001
"313","1",2,4,36,"car_neg","car_neg","car_pos","negation","negative","target","distractor","L","car_neg","Y","7/23/2015","12:17",590
"314","1",2,4,37,"car_pos","car_pos","car_neg","negation","positive","target","distractor","L","car_pos","Y","7/23/2015","12:17",644
"315","1",2,4,38,"banana_neg","banana_neg","banana_pos","negation","negative","target","distractor","R","banana_pos","N","7/23/2015","12:17",517.000000000001
"316","1",2,4,39,"dog_pos","dog_neg","dog_pos","negation","positive","distractor","target","R","dog_pos","Y","7/23/2015","12:17",790
"317","1",2,4,40,"teddybear_neg","teddybear_pos","teddybear_neg","negation","negative","distractor","target","R","teddybear_neg","Y","7/23/2015","12:17",768.999999999998
"318","1",2,4,41,"cup_pos","cup_neg","cup_pos","negation","positive","distractor","target","R","cup_pos","Y","7/23/2015","12:17",748
"319","1",2,4,42,"bird_pos","bird_neg","bird_pos","negation","positive","distractor","target","R","bird_pos","Y","7/23/2015","12:17",760
"320","1",2,4,43,"apple_neg","apple_neg","apple_pos","negation","negative","target","distractor","L","apple_neg","Y","7/23/2015","12:17",537.999999999998
"321","1",2,4,44,"lamp_pos","lamp_pos","lamp_neg","negation","positive","target","distractor","L","lamp_pos","Y","7/23/2015","12:17",669
"322","1",2,4,45,"cat_neg","cat_neg","cat_pos","negation","negative","target","distractor","L","cat_neg","Y","7/23/2015","12:17",652.000000000001
"323","1",2,4,46,"cookie_pos","cookie_pos","cookie_neg","negation","positive","target","distractor","L","cookie_pos","Y","7/23/2015","12:17",666
"324","1",2,4,48,"flower_neg","flower_pos","flower_neg","negation","negative","distractor","target","L","flower_pos","N","7/23/2015","12:17",498.000000000001
"325","1",2,4,47,"bicycle_neg","bicycle_pos","bicycle_neg","negation","negative","distractor","target","R","bicycle_neg","Y","7/23/2015","12:17",881.000000000001
"326","1",2,4,49,"banana_pos","banana_neg","banana_pos","negation","positive","distractor","target","L","banana_neg","N","7/23/2015","12:17",1032
"327","1",2,4,50,"flower_pos","flower_neg","flower_pos","negation","positive","distractor","target","R","flower_pos","Y","7/23/2015","12:17",1107
"328","1",2,4,51,"bird_neg","bird_neg","bird_pos","negation","negative","target","distractor","R","bird_pos","N","7/23/2015","12:17",541
"329","1",2,4,52,"apple_neg","apple_pos","apple_neg","negation","negative","distractor","target","L","apple_pos","N","7/23/2015","12:17",480.999999999998
"330","1",2,4,53,"lamp_neg","lamp_neg","lamp_pos","negation","negative","target","distractor","R","lamp_pos","N","7/23/2015","12:17",519.999999999997
"331","1",2,4,54,"bicycle_pos","bicycle_pos","bicycle_neg","negation","positive","target","distractor","L","bicycle_pos","Y","7/23/2015","12:17",770
"332","1",2,4,55,"cup_pos","cup_pos","cup_neg","negation","positive","target","distractor","L","cup_pos","Y","7/23/2015","12:17",757
"333","1",2,4,56,"car_neg","car_pos","car_neg","negation","negative","distractor","target","R","car_neg","Y","7/23/2015","12:17",626
"334","1",2,4,57,"cookie_pos","cookie_neg","cookie_pos","negation","positive","distractor","target","R","cookie_pos","Y","7/23/2015","12:17",712
"335","1",2,4,58,"teddybear_pos","teddybear_pos","teddybear_neg","negation","positive","target","distractor","L","teddybear_pos","Y","7/23/2015","12:17",602
"336","1",2,4,59,"cat_pos","cat_pos","cat_neg","negation","positive","target","distractor","L","cat_pos","Y","7/23/2015","12:17",640
"337","1",2,4,60,"dog_neg","dog_neg","dog_pos","negation","negative","target","distractor","L","dog_neg","Y","7/23/2015","12:17",857
"338","1",2,4,61,"bird_pos","bird_pos","bird_neg","negation","positive","target","distractor","R","bird_neg","N","7/23/2015","12:17",717
"339","1",2,4,62,"teddybear_neg","teddybear_pos","teddybear_neg","negation","negative","distractor","target","L","teddybear_pos","N","7/23/2015","12:17",711.999999999998
"340","1",2,4,63,"flower_pos","flower_pos","flower_neg","negation","positive","target","distractor","L","flower_pos","Y","7/23/2015","12:17",881
"341","1",2,4,64,"car_neg","car_pos","car_neg","negation","negative","distractor","target","R","car_neg","Y","7/23/2015","12:17",580
"342","1",2,4,65,"dog_pos","dog_pos","dog_neg","negation","positive","target","distractor","L","dog_pos","Y","7/23/2015","12:17",611
"343","1",2,4,66,"apple_pos","apple_pos","apple_neg","negation","positive","target","distractor","L","apple_pos","Y","7/23/2015","12:17",760
"344","1",2,4,67,"lamp_neg","lamp_pos","lamp_neg","negation","negative","distractor","target","R","lamp_neg","Y","7/23/2015","12:17",918.999999999997
"345","1",2,4,68,"bicycle_pos","bicycle_pos","bicycle_neg","negation","positive","target","distractor","L","bicycle_pos","Y","7/23/2015","12:17",722
"346","1",2,4,69,"cookie_neg","cookie_neg","cookie_pos","negation","negative","target","distractor","L","cookie_neg","Y","7/23/2015","12:17",653
"347","1",2,4,70,"banana_neg","banana_neg","banana_pos","negation","negative","target","distractor","L","banana_neg","Y","7/23/2015","12:17",1061
"348","1",2,4,71,"cat_neg","cat_neg","cat_pos","negation","negative","target","distractor","R","cat_pos","N","7/23/2015","12:17",557.000000000001
"349","1",2,4,72,"cup_pos","cup_pos","cup_neg","negation","positive","target","distractor","L","cup_pos","Y","7/23/2015","12:17",730
"350","1",2,4,73,"banana_pos","banana_pos","banana_neg","negation","positive","target","distractor","L","banana_pos","Y","7/23/2015","12:17",1400
"351","1",2,4,74,"dog_neg","dog_pos","dog_neg","negation","negative","distractor","target","R","dog_neg","Y","7/23/2015","12:17",1156
"352","1",2,4,75,"flower_neg","flower_neg","flower_pos","negation","negative","target","distractor","L","flower_neg","Y","7/23/2015","12:17",494.000000000001
"353","1",2,4,76,"bird_pos","bird_pos","bird_neg","negation","positive","target","distractor","R","bird_neg","N","7/23/2015","12:17",702
"354","1",2,4,77,"lamp_neg","lamp_pos","lamp_neg","negation","negative","distractor","target","L","lamp_pos","N","7/23/2015","12:17",526.999999999997
"355","1",2,4,78,"cat_neg","cat_pos","cat_neg","negation","negative","distractor","target","R","cat_neg","Y","7/23/2015","12:17",814.000000000001
"356","1",2,4,79,"cookie_pos","cookie_pos","cookie_neg","negation","positive","target","distractor","L","cookie_pos","Y","7/23/2015","12:17",543
"357","1",2,4,80,"bicycle_neg","bicycle_pos","bicycle_neg","negation","negative","distractor","target","R","bicycle_neg","Y","7/23/2015","12:17",583.000000000001
"358","1",2,4,81,"apple_neg","apple_pos","apple_neg","negation","negative","distractor","target","L","apple_pos","N","7/23/2015","12:17",493.999999999998
"359","1",2,4,82,"cup_neg","cup_pos","cup_neg","negation","negative","distractor","target","R","cup_neg","Y","7/23/2015","12:17",596.000000000001
"360","1",2,4,83,"teddybear_pos","teddybear_pos","teddybear_neg","negation","positive","target","distractor","L","teddybear_pos","Y","7/23/2015","12:17",729
"361","1",2,4,84,"car_pos","car_neg","car_pos","negation","positive","distractor","target","L","car_neg","N","7/23/2015","12:17",693
"362","1",2,4,85,"dog_neg","dog_neg","dog_pos","negation","negative","target","distractor","L","dog_neg","Y","7/23/2015","12:17",1747
"363","1",2,4,86,"bird_pos","bird_pos","bird_neg","negation","positive","target","distractor","L","bird_pos","Y","7/23/2015","12:17",724
"364","1",2,4,87,"cup_pos","cup_neg","cup_pos","negation","positive","distractor","target","R","cup_pos","Y","7/23/2015","12:17",827
"365","1",2,4,88,"banana_neg","banana_neg","banana_pos","negation","negative","target","distractor","L","banana_neg","Y","7/23/2015","12:17",697.000000000001
"366","1",2,4,89,"cookie_neg","cookie_neg","cookie_pos","negation","negative","target","distractor","L","cookie_neg","Y","7/23/2015","12:17",759
"367","1",2,4,90,"lamp_neg","lamp_pos","lamp_neg","negation","negative","distractor","target","R","lamp_neg","Y","7/23/2015","12:17",483.999999999997
"368","1",2,4,91,"cat_neg","cat_neg","cat_pos","negation","negative","target","distractor","L","cat_neg","Y","7/23/2015","12:17",861.000000000001
"369","1",2,4,92,"car_pos","car_neg","car_pos","negation","positive","distractor","target","R","car_pos","Y","7/23/2015","12:17",841
"370","1",2,4,93,"bicycle_pos","bicycle_neg","bicycle_pos","negation","positive","distractor","target","R","bicycle_pos","Y","7/23/2015","12:17",832
"371","1",2,4,94,"apple_neg","apple_neg","apple_pos","negation","negative","target","distractor","R","apple_pos","N","7/23/2015","12:17",634.999999999998
"372","1",2,4,95,"flower_pos","flower_pos","flower_neg","negation","positive","target","distractor","L","flower_pos","Y","7/23/2015","12:17",929
"373","1",2,4,96,"teddybear_pos","teddybear_pos","teddybear_neg","negation","positive","target","distractor","L","teddybear_pos","Y","7/23/2015","12:17",700
"374","1",2,4,97,"apple_neg","apple_pos","apple_neg","negation","negative","distractor","target","R","apple_neg","Y","7/23/2015","12:17",578.999999999998
"375","1",2,4,98,"dog_pos","dog_neg","dog_pos","negation","positive","distractor","target","R","dog_pos","Y","7/23/2015","12:17",815
"376","1",2,4,99,"bird_neg","bird_neg","bird_pos","negation","negative","target","distractor","L","bird_neg","Y","7/23/2015","12:17",640
"377","1",2,4,100,"cookie_neg","cookie_neg","cookie_pos","negation","negative","target","distractor","L","cookie_neg","Y","7/23/2015","12:17",691
"378","1",2,4,101,"teddybear_pos","teddybear_pos","teddybear_neg","negation","positive","target","distractor","L","teddybear_pos","Y","7/23/2015","12:17",804
"379","1",2,4,102,"banana_pos","banana_neg","banana_pos","negation","positive","distractor","target","L","banana_neg","N","7/23/2015","12:17",829
"380","1",2,4,103,"cup_neg","cup_pos","cup_neg","negation","negative","distractor","target","L","cup_pos","N","7/23/2015","12:17",1441
"381","1",2,4,104,"car_pos","car_neg","car_pos","negation","positive","distractor","target","L","car_neg","N","7/23/2015","12:17",703
"382","1",2,4,105,"flower_pos","flower_neg","flower_pos","negation","positive","distractor","target","R","flower_pos","Y","7/23/2015","12:17",1207
"383","1",2,4,106,"cat_neg","cat_neg","cat_pos","negation","negative","target","distractor","L","cat_neg","Y","7/23/2015","12:17",1069
"384","1",2,4,107,"lamp_neg","lamp_pos","lamp_neg","negation","negative","distractor","target","R","lamp_neg","Y","7/23/2015","12:17",493.999999999997
"385","1",2,4,108,"bicycle_pos","bicycle_neg","bicycle_pos","negation","positive","distractor","target","R","bicycle_pos","Y","7/23/2015","12:17",834
"386","1",2,4,109,"cup_pos","cup_neg","cup_pos","negation","positive","distractor","target","R","cup_pos","Y","7/23/2015","12:17",757
"387","1",2,4,110,"cat_neg","cat_pos","cat_neg","negation","negative","distractor","target","R","cat_neg","Y","7/23/2015","12:17",849.000000000001
"388","1",2,4,111,"banana_neg","banana_pos","banana_neg","negation","negative","distractor","target","R","banana_neg","Y","7/23/2015","12:17",653.000000000001
"389","1",2,4,113,"apple_neg","apple_pos","apple_neg","negation","negative","distractor","target","R","apple_neg","Y","7/23/2015","12:17",674.999999999998
"390","1",2,4,112,"bird_neg","bird_pos","bird_neg","negation","negative","distractor","target","L","bird_pos","N","7/23/2015","12:17",783
"391","1",2,4,114,"car_pos","car_neg","car_pos","negation","positive","distractor","target","R","car_pos","Y","7/23/2015","12:17",848
"392","1",2,4,115,"lamp_pos","lamp_neg","lamp_pos","negation","positive","distractor","target","R","lamp_pos","Y","7/23/2015","12:17",706
"393","1",2,4,116,"dog_neg","dog_pos","dog_neg","negation","negative","distractor","target","R","dog_neg","Y","7/23/2015","12:17",954
"394","1",2,4,117,"bicycle_neg","bicycle_neg","bicycle_pos","negation","negative","target","distractor","L","bicycle_neg","Y","7/23/2015","12:17",676.000000000001
"395","1",2,4,118,"cookie_pos","cookie_pos","cookie_neg","negation","positive","target","distractor","L","cookie_pos","Y","7/23/2015","12:17",1040
"396","1",2,4,119,"teddybear_pos","teddybear_neg","teddybear_pos","negation","positive","distractor","target","R","teddybear_pos","Y","7/23/2015","12:17",715
"397","1",2,4,120,"flower_pos","flower_neg","flower_pos","negation","positive","distractor","target","R","flower_pos","Y","7/23/2015","12:17",808
"398","2",2,3,1,"cookie_pos","cookie_neg","cookie_pos","negation","positive","distractor","target","R","cookie_pos","Y","7/24/2015","11:22",1314
"399","2",2,3,2,"flower_neg","flower_neg","flower_pos","negation","negative","target","distractor","R","flower_pos","N","7/24/2015","11:22",1180
"400","2",2,3,3,"cat_neg","cat_neg","cat_pos","negation","negative","target","distractor","L","cat_neg","Y","7/24/2015","11:22",1191
"401","2",2,3,4,"bicycle_neg","bicycle_pos","bicycle_neg","negation","negative","distractor","target","R","bicycle_neg","Y","7/24/2015","11:22",868.000000000001
"402","2",2,3,5,"lamp_pos","lamp_neg","lamp_pos","negation","positive","distractor","target","L","lamp_neg","N","7/24/2015","11:22",918
"403","2",2,3,6,"bird_pos","bird_pos","bird_neg","negation","positive","target","distractor","L","bird_pos","Y","7/24/2015","11:22",1025
"404","2",2,3,7,"banana_pos","banana_neg","banana_pos","negation","positive","distractor","target","R","banana_pos","Y","7/24/2015","11:22",1355
"405","2",2,3,8,"dog_pos","dog_pos","dog_neg","negation","positive","target","distractor","L","dog_pos","Y","7/24/2015","11:22",877
"406","2",2,3,9,"apple_pos","apple_pos","apple_neg","negation","positive","target","distractor","L","apple_pos","Y","7/24/2015","11:22",737
"407","2",2,3,10,"car_neg","car_neg","car_pos","negation","negative","target","distractor","L","car_neg","Y","7/24/2015","11:22",1177
"408","2",2,3,11,"teddybear_pos","teddybear_pos","teddybear_neg","negation","positive","target","distractor","L","teddybear_pos","Y","7/24/2015","11:22",1155
"409","2",2,3,12,"cup_neg","cup_neg","cup_pos","negation","negative","target","distractor","L","cup_neg","Y","7/24/2015","11:22",946.000000000001
"410","2",2,3,13,"apple_pos","apple_neg","apple_pos","negation","positive","distractor","target","R","apple_pos","Y","7/24/2015","11:22",1362
"411","2",2,3,14,"cookie_neg","cookie_pos","cookie_neg","negation","negative","distractor","target","R","cookie_neg","Y","7/24/2015","11:22",714
"412","2",2,3,15,"banana_neg","banana_neg","banana_pos","negation","negative","target","distractor","L","banana_neg","Y","7/24/2015","11:22",869.000000000001
"413","2",2,3,16,"dog_pos","dog_neg","dog_pos","negation","positive","distractor","target","R","dog_pos","Y","7/24/2015","11:22",993
"414","2",2,3,17,"bird_pos","bird_pos","bird_neg","negation","positive","target","distractor","R","bird_neg","N","7/24/2015","11:22",1197
"415","2",2,3,18,"bicycle_neg","bicycle_pos","bicycle_neg","negation","negative","distractor","target","R","bicycle_neg","Y","7/24/2015","11:22",1169
"416","2",2,3,19,"cup_neg","cup_neg","cup_pos","negation","negative","target","distractor","L","cup_neg","Y","7/24/2015","11:22",1324
"417","2",2,3,20,"lamp_pos","lamp_neg","lamp_pos","negation","positive","distractor","target","R","lamp_pos","Y","7/24/2015","11:22",1259
"418","2",2,3,21,"car_pos","car_pos","car_neg","negation","positive","target","distractor","L","car_pos","Y","7/24/2015","11:22",1127
"419","2",2,3,22,"cat_neg","cat_pos","cat_neg","negation","negative","distractor","target","R","cat_neg","Y","7/24/2015","11:22",1034
"420","2",2,3,23,"flower_neg","flower_neg","flower_pos","negation","negative","target","distractor","L","flower_neg","Y","7/24/2015","11:22",935
"421","2",2,3,24,"teddybear_pos","teddybear_pos","teddybear_neg","negation","positive","target","distractor","L","teddybear_pos","Y","7/24/2015","11:22",976
"422","2",2,3,25,"lamp_pos","lamp_pos","lamp_neg","negation","positive","target","distractor","L","lamp_pos","Y","7/24/2015","11:22",753
"423","2",2,3,26,"flower_pos","flower_neg","flower_pos","negation","positive","distractor","target","R","flower_pos","Y","7/24/2015","11:22",986
"424","2",2,3,27,"bicycle_neg","bicycle_pos","bicycle_neg","negation","negative","distractor","target","R","bicycle_neg","Y","7/24/2015","11:22",805.000000000001
"425","2",2,3,28,"dog_neg","dog_neg","dog_pos","negation","negative","target","distractor","L","dog_neg","Y","7/24/2015","11:22",1098
"426","2",2,3,29,"cup_pos","cup_pos","cup_neg","negation","positive","target","distractor","L","cup_pos","Y","7/24/2015","11:22",991
"427","2",2,3,30,"apple_neg","apple_neg","apple_pos","negation","negative","target","distractor","L","apple_neg","Y","7/24/2015","11:22",891.999999999998
"428","2",2,3,31,"cookie_pos","cookie_neg","cookie_pos","negation","positive","distractor","target","R","cookie_pos","Y","7/24/2015","11:22",717
"429","2",2,3,32,"teddybear_pos","teddybear_pos","teddybear_neg","negation","positive","target","distractor","L","teddybear_pos","Y","7/24/2015","11:22",713
"430","2",2,3,33,"bird_pos","bird_neg","bird_pos","negation","positive","distractor","target","R","bird_pos","Y","7/24/2015","11:22",804
"431","2",2,3,34,"cat_neg","cat_neg","cat_pos","negation","negative","target","distractor","L","cat_neg","Y","7/24/2015","11:22",1230
"432","2",2,3,35,"banana_neg","banana_neg","banana_pos","negation","negative","target","distractor","L","banana_neg","Y","7/24/2015","11:22",1390
"433","2",2,3,36,"car_pos","car_pos","car_neg","negation","positive","target","distractor","L","car_pos","Y","7/24/2015","11:22",1020
"434","2",2,3,37,"car_neg","car_pos","car_neg","negation","negative","distractor","target","R","car_neg","Y","7/24/2015","11:22",861
"435","2",2,3,38,"banana_neg","banana_neg","banana_pos","negation","negative","target","distractor","L","banana_neg","Y","7/24/2015","11:22",1038
"436","2",2,3,39,"dog_pos","dog_neg","dog_pos","negation","positive","distractor","target","R","dog_pos","Y","7/24/2015","11:22",845
"437","2",2,3,40,"teddybear_pos","teddybear_neg","teddybear_pos","negation","positive","distractor","target","R","teddybear_pos","Y","7/24/2015","11:22",880
"438","2",2,3,41,"cup_neg","cup_neg","cup_pos","negation","negative","target","distractor","L","cup_neg","Y","7/24/2015","11:22",654.000000000001
"439","2",2,3,42,"bird_pos","bird_neg","bird_pos","negation","positive","distractor","target","R","bird_pos","Y","7/24/2015","11:22",939
"440","2",2,3,43,"apple_pos","apple_neg","apple_pos","negation","positive","distractor","target","R","apple_pos","Y","7/24/2015","11:22",769
"441","2",2,3,44,"lamp_pos","lamp_neg","lamp_pos","negation","positive","distractor","target","R","lamp_pos","Y","7/24/2015","11:22",783
"442","2",2,3,45,"cat_pos","cat_neg","cat_pos","negation","positive","distractor","target","R","cat_pos","Y","7/24/2015","11:22",1325
"443","2",2,3,46,"cookie_pos","cookie_neg","cookie_pos","negation","positive","distractor","target","R","cookie_pos","Y","7/24/2015","11:22",708
"444","2",2,3,47,"bicycle_pos","bicycle_pos","bicycle_neg","negation","positive","target","distractor","L","bicycle_pos","Y","7/24/2015","11:22",1157
"445","2",2,3,48,"flower_pos","flower_neg","flower_pos","negation","positive","distractor","target","R","flower_pos","Y","7/24/2015","11:22",755
"446","2",2,3,49,"banana_pos","banana_neg","banana_pos","negation","positive","distractor","target","R","banana_pos","Y","7/24/2015","11:22",723
"447","2",2,3,50,"flower_pos","flower_neg","flower_pos","negation","positive","distractor","target","R","flower_pos","Y","7/24/2015","11:22",832
"448","2",2,3,51,"bird_neg","bird_pos","bird_neg","negation","negative","distractor","target","R","bird_neg","Y","7/24/2015","11:22",912
"449","2",2,3,52,"apple_neg","apple_pos","apple_neg","negation","negative","distractor","target","R","apple_neg","Y","7/24/2015","11:22",878.999999999998
"450","2",2,3,53,"lamp_neg","lamp_neg","lamp_pos","negation","negative","target","distractor","L","lamp_neg","Y","7/24/2015","11:22",795.999999999997
"451","2",2,3,54,"bicycle_pos","bicycle_pos","bicycle_neg","negation","positive","target","distractor","R","bicycle_neg","N","7/24/2015","11:22",1290
"452","2",2,3,55,"cup_neg","cup_pos","cup_neg","negation","negative","distractor","target","R","cup_neg","Y","7/24/2015","11:22",963.000000000001
"453","2",2,3,56,"car_neg","car_pos","car_neg","negation","negative","distractor","target","R","car_neg","Y","7/24/2015","11:22",923
"454","2",2,3,57,"cookie_neg","cookie_neg","cookie_pos","negation","negative","target","distractor","L","cookie_neg","Y","7/24/2015","11:22",766
"455","2",2,3,58,"teddybear_pos","teddybear_neg","teddybear_pos","negation","positive","distractor","target","R","teddybear_pos","Y","7/24/2015","11:22",963
"456","2",2,3,59,"cat_neg","cat_pos","cat_neg","negation","negative","distractor","target","R","cat_neg","Y","7/24/2015","11:22",1159
"457","2",2,3,60,"dog_neg","dog_pos","dog_neg","negation","negative","distractor","target","R","dog_neg","Y","7/24/2015","11:22",1875
"458","2",2,3,61,"bird_pos","bird_pos","bird_neg","negation","positive","target","distractor","L","bird_pos","Y","7/24/2015","11:22",1449
"459","2",2,3,62,"teddybear_pos","teddybear_neg","teddybear_pos","negation","positive","distractor","target","R","teddybear_pos","Y","7/24/2015","11:22",946
"460","2",2,3,63,"flower_pos","flower_neg","flower_pos","negation","positive","distractor","target","R","flower_pos","Y","7/24/2015","11:22",922
"461","2",2,3,64,"car_pos","car_neg","car_pos","negation","positive","distractor","target","R","car_pos","Y","7/24/2015","11:22",703
"462","2",2,3,65,"dog_pos","dog_neg","dog_pos","negation","positive","distractor","target","R","dog_pos","Y","7/24/2015","11:22",824
"463","2",2,3,66,"apple_pos","apple_pos","apple_neg","negation","positive","target","distractor","L","apple_pos","Y","7/24/2015","11:22",832
"464","2",2,3,67,"lamp_neg","lamp_neg","lamp_pos","negation","negative","target","distractor","L","lamp_neg","Y","7/24/2015","11:22",712.999999999997
"465","2",2,3,68,"bicycle_pos","bicycle_pos","bicycle_neg","negation","positive","target","distractor","L","bicycle_pos","Y","7/24/2015","11:22",762
"466","2",2,3,69,"cookie_neg","cookie_pos","cookie_neg","negation","negative","distractor","target","R","cookie_neg","Y","7/24/2015","11:22",734
"467","2",2,3,70,"banana_pos","banana_neg","banana_pos","negation","positive","distractor","target","R","banana_pos","Y","7/24/2015","11:22",817
"468","2",2,3,71,"cat_neg","cat_pos","cat_neg","negation","negative","distractor","target","R","cat_neg","Y","7/24/2015","11:22",843.000000000001
"469","2",2,3,72,"cup_pos","cup_neg","cup_pos","negation","positive","distractor","target","R","cup_pos","Y","7/24/2015","11:22",983
"470","2",2,3,73,"banana_neg","banana_pos","banana_neg","negation","negative","distractor","target","R","banana_neg","Y","7/24/2015","11:22",803.000000000001
"471","2",2,3,74,"dog_pos","dog_neg","dog_pos","negation","positive","distractor","target","R","dog_pos","Y","7/24/2015","11:22",838
"472","2",2,3,75,"flower_pos","flower_pos","flower_neg","negation","positive","target","distractor","L","flower_pos","Y","7/24/2015","11:22",1242
"473","2",2,3,76,"bird_pos","bird_neg","bird_pos","negation","positive","distractor","target","R","bird_pos","Y","7/24/2015","11:22",739
"474","2",2,3,77,"lamp_pos","lamp_pos","lamp_neg","negation","positive","target","distractor","L","lamp_pos","Y","7/24/2015","11:22",845
"475","2",2,3,78,"cat_neg","cat_neg","cat_pos","negation","negative","target","distractor","L","cat_neg","Y","7/24/2015","11:22",1223
"476","2",2,3,79,"cookie_neg","cookie_pos","cookie_neg","negation","negative","distractor","target","R","cookie_neg","Y","7/24/2015","11:22",715
"477","2",2,3,80,"bicycle_neg","bicycle_pos","bicycle_neg","negation","negative","distractor","target","R","bicycle_neg","Y","7/24/2015","11:22",1052
"478","2",2,3,81,"apple_neg","apple_pos","apple_neg","negation","negative","distractor","target","R","apple_neg","Y","7/24/2015","11:22",870.999999999998
"479","2",2,3,82,"cup_neg","cup_neg","cup_pos","negation","negative","target","distractor","L","cup_neg","Y","7/24/2015","11:22",906.000000000001
"480","2",2,3,83,"teddybear_neg","teddybear_pos","teddybear_neg","negation","negative","distractor","target","R","teddybear_neg","Y","7/24/2015","11:22",900.999999999998
"481","2",2,3,84,"car_pos","car_neg","car_pos","negation","positive","distractor","target","R","car_pos","Y","7/24/2015","11:22",1330
"482","2",2,3,85,"dog_neg","dog_pos","dog_neg","negation","negative","distractor","target","R","dog_neg","Y","7/24/2015","11:22",975
"483","2",2,3,86,"bird_pos","bird_pos","bird_neg","negation","positive","target","distractor","L","bird_pos","Y","7/24/2015","11:22",929
"484","2",2,3,87,"cup_pos","cup_pos","cup_neg","negation","positive","target","distractor","L","cup_pos","Y","7/24/2015","11:22",1012
"485","2",2,3,88,"banana_neg","banana_neg","banana_pos","negation","negative","target","distractor","L","banana_neg","Y","7/24/2015","11:22",1124
"486","2",2,3,89,"cookie_neg","cookie_pos","cookie_neg","negation","negative","distractor","target","R","cookie_neg","Y","7/24/2015","11:22",1525
"487","2",2,3,90,"lamp_neg","lamp_neg","lamp_pos","negation","negative","target","distractor","L","lamp_neg","Y","7/24/2015","11:22",753.999999999997
"488","2",2,3,91,"cat_neg","cat_neg","cat_pos","negation","negative","target","distractor","L","cat_neg","Y","7/24/2015","11:22",795.000000000001
"489","2",2,3,92,"car_pos","car_neg","car_pos","negation","positive","distractor","target","R","car_pos","Y","7/24/2015","11:22",1323
"490","2",2,3,93,"bicycle_neg","bicycle_neg","bicycle_pos","negation","negative","target","distractor","L","bicycle_neg","Y","7/24/2015","11:22",879.000000000001
"491","2",2,3,94,"apple_neg","apple_neg","apple_pos","negation","negative","target","distractor","L","apple_neg","Y","7/24/2015","11:22",770.999999999998
"492","2",2,3,95,"flower_pos","flower_neg","flower_pos","negation","positive","distractor","target","R","flower_pos","Y","7/24/2015","11:22",1945
"493","2",2,3,96,"teddybear_pos","teddybear_pos","teddybear_neg","negation","positive","target","distractor","L","teddybear_pos","Y","7/24/2015","11:22",1006
"494","2",2,3,97,"apple_pos","apple_neg","apple_pos","negation","positive","distractor","target","R","apple_pos","Y","7/24/2015","11:22",633
"495","2",2,3,98,"dog_neg","dog_neg","dog_pos","negation","negative","target","distractor","L","dog_neg","Y","7/24/2015","11:22",1060
"496","2",2,3,99,"bird_neg","bird_neg","bird_pos","negation","negative","target","distractor","L","bird_neg","Y","7/24/2015","11:22",626
"497","2",2,3,100,"cookie_neg","cookie_neg","cookie_pos","negation","negative","target","distractor","L","cookie_neg","Y","7/24/2015","11:22",517
"498","2",2,3,101,"teddybear_neg","teddybear_neg","teddybear_pos","negation","negative","target","distractor","L","teddybear_neg","Y","7/24/2015","11:22",896.999999999998
"499","2",2,3,102,"banana_neg","banana_neg","banana_pos","negation","negative","target","distractor","L","banana_neg","Y","7/24/2015","11:22",946.000000000001
"500","2",2,3,103,"cup_neg","cup_pos","cup_neg","negation","negative","distractor","target","R","cup_neg","Y","7/24/2015","11:22",906.000000000001
"501","2",2,3,104,"car_pos","car_neg","car_pos","negation","positive","distractor","target","R","car_pos","Y","7/24/2015","11:22",837
"502","2",2,3,105,"flower_neg","flower_neg","flower_pos","negation","negative","target","distractor","L","flower_neg","Y","7/24/2015","11:22",1117
"503","2",2,3,106,"cat_pos","cat_neg","cat_pos","negation","positive","distractor","target","R","cat_pos","Y","7/24/2015","11:22",832
"504","2",2,3,107,"lamp_neg","lamp_neg","lamp_pos","negation","negative","target","distractor","L","lamp_neg","Y","7/24/2015","11:22",1320
"505","2",2,3,108,"bicycle_pos","bicycle_pos","bicycle_neg","negation","positive","target","distractor","L","bicycle_pos","Y","7/24/2015","11:22",890
"506","2",2,3,109,"cup_neg","cup_pos","cup_neg","negation","negative","distractor","target","R","cup_neg","Y","7/24/2015","11:22",1140
"507","2",2,3,110,"cat_neg","cat_pos","cat_neg","negation","negative","distractor","target","R","cat_neg","Y","7/24/2015","11:22",1862
"508","2",2,3,111,"banana_neg","banana_pos","banana_neg","negation","negative","distractor","target","R","banana_neg","Y","7/24/2015","11:22",1757
"509","2",2,3,112,"bird_neg","bird_pos","bird_neg","negation","negative","distractor","target","R","bird_neg","Y","7/24/2015","11:22",5629
"510","2",2,3,113,"apple_neg","apple_pos","apple_neg","negation","negative","distractor","target","R","apple_neg","Y","7/24/2015","11:22",1399
"511","2",2,3,114,"car_neg","car_pos","car_neg","negation","negative","distractor","target","R","car_neg","Y","7/24/2015","11:22",898
"512","2",2,3,115,"lamp_neg","lamp_neg","lamp_pos","negation","negative","target","distractor","L","lamp_neg","Y","7/24/2015","11:22",1075
"513","2",2,3,116,"dog_pos","dog_pos","dog_neg","negation","positive","target","distractor","L","dog_pos","Y","7/24/2015","11:22",1019
"514","2",2,3,117,"bicycle_pos","bicycle_neg","bicycle_pos","negation","positive","distractor","target","R","bicycle_pos","Y","7/24/2015","11:22",961
"515","2",2,3,118,"cookie_neg","cookie_neg","cookie_pos","negation","negative","target","distractor","L","cookie_neg","Y","7/24/2015","11:22",1248
"516","2",2,3,119,"teddybear_pos","teddybear_neg","teddybear_pos","negation","positive","distractor","target","R","teddybear_pos","Y","7/24/2015","11:22",1402
"517","2",2,3,120,"flower_pos","flower_neg","flower_pos","negation","positive","distractor","target","R","flower_pos","Y","7/24/2015","11:22",851
"518","2",2,3,1,"cup_pos","cup_pos","cup_inhib","inhibition","control","target","distractor","L","cup_pos","Y","7/24/2015","11:22",1098
"519","2",2,3,2,"cup_pos","cup_pos","cup_inhib","inhibition","control","target","distractor","L","cup_pos","Y","7/24/2015","11:22",735
"520","2",2,3,3,"cup_pos","cup_pos","cup_inhib","inhibition","control","target","distractor","L","cup_pos","Y","7/24/2015","11:22",462
"521","2",2,3,4,"cup_pos","cup_inhib","cup_pos","inhibition","control","distractor","target","R","cup_pos","Y","7/24/2015","11:22",789
"522","2",2,3,5,"cup_pos","cup_inhib","cup_pos","inhibition","control","distractor","target","R","cup_pos","Y","7/24/2015","11:22",417
"523","2",2,3,6,"cup_pos","cup_pos","cup_inhib","inhibition","control","target","distractor","L","cup_pos","Y","7/24/2015","11:22",590
"524","2",2,3,7,"cup_inhib","cup_inhib","cup_pos","inhibition","inhib","target","distractor","L","cup_inhib","Y","7/24/2015","11:22",831
"525","2",2,3,8,"bird_pos","bird_pos","bird_inhib","inhibition","control","target","distractor","L","bird_pos","Y","7/24/2015","11:22",855
"526","2",2,3,9,"bird_pos","bird_inhib","bird_pos","inhibition","control","distractor","target","R","bird_pos","Y","7/24/2015","11:22",712
"527","2",2,3,10,"bird_pos","bird_inhib","bird_pos","inhibition","control","distractor","target","R","bird_pos","Y","7/24/2015","11:22",694
"528","2",2,3,11,"bird_pos","bird_inhib","bird_pos","inhibition","control","distractor","target","R","bird_pos","Y","7/24/2015","11:22",423
"529","2",2,3,12,"bird_pos","bird_inhib","bird_pos","inhibition","control","distractor","target","R","bird_pos","Y","7/24/2015","11:22",559
"530","2",2,3,13,"bird_pos","bird_inhib","bird_pos","inhibition","control","distractor","target","R","bird_pos","Y","7/24/2015","11:22",615
"531","2",2,3,14,"bird_inhib","bird_pos","bird_inhib","inhibition","inhib","distractor","target","R","bird_inhib","Y","7/24/2015","11:22",657
"532","2",2,3,15,"lamp_pos","lamp_pos","lamp_inhib","inhibition","control","target","distractor","L","lamp_pos","Y","7/24/2015","11:22",935
"533","2",2,3,16,"lamp_pos","lamp_inhib","lamp_pos","inhibition","control","distractor","target","R","lamp_pos","Y","7/24/2015","11:22",572
"534","2",2,3,17,"lamp_pos","lamp_pos","lamp_inhib","inhibition","control","target","distractor","L","lamp_pos","Y","7/24/2015","11:22",444
"535","2",2,3,18,"lamp_pos","lamp_pos","lamp_inhib","inhibition","control","target","distractor","L","lamp_pos","Y","7/24/2015","11:22",462
"536","2",2,3,19,"lamp_pos","lamp_inhib","lamp_pos","inhibition","control","distractor","target","R","lamp_pos","Y","7/24/2015","11:22",471
"537","2",2,3,20,"lamp_inhib","lamp_inhib","lamp_pos","inhibition","inhib","target","distractor","L","lamp_inhib","Y","7/24/2015","11:22",779
"538","2",2,3,21,"cookie_pos","cookie_pos","cookie_inhib","inhibition","control","target","distractor","L","cookie_pos","Y","7/24/2015","11:22",689
"539","2",2,3,22,"cookie_pos","cookie_pos","cookie_inhib","inhibition","control","target","distractor","L","cookie_pos","Y","7/24/2015","11:22",410
"540","2",2,3,23,"cookie_pos","cookie_pos","cookie_inhib","inhibition","control","target","distractor","L","cookie_pos","Y","7/24/2015","11:22",415
"541","2",2,3,24,"cookie_pos","cookie_inhib","cookie_pos","inhibition","control","distractor","target","R","cookie_pos","Y","7/24/2015","11:22",658
"542","2",2,3,25,"cookie_pos","cookie_inhib","cookie_pos","inhibition","control","distractor","target","R","cookie_pos","Y","7/24/2015","11:22",631
"543","2",2,3,26,"cookie_pos","cookie_pos","cookie_inhib","inhibition","control","target","distractor","L","cookie_pos","Y","7/24/2015","11:22",1471
"544","2",2,3,27,"cookie_inhib","cookie_pos","cookie_inhib","inhibition","inhib","distractor","target","R","cookie_inhib","Y","7/24/2015","11:22",823
"545","2",2,3,28,"flower_pos","flower_pos","flower_inhib","inhibition","control","target","distractor","L","flower_pos","Y","7/24/2015","11:22",1002
"546","2",2,3,29,"flower_pos","flower_inhib","flower_pos","inhibition","control","distractor","target","R","flower_pos","Y","7/24/2015","11:22",713
"547","2",2,3,30,"flower_pos","flower_pos","flower_inhib","inhibition","control","target","distractor","L","flower_pos","Y","7/24/2015","11:22",838
"548","2",2,3,31,"flower_pos","flower_inhib","flower_pos","inhibition","control","distractor","target","R","flower_pos","Y","7/24/2015","11:22",424
"549","2",2,3,32,"flower_pos","flower_pos","flower_inhib","inhibition","control","target","distractor","L","flower_pos","Y","7/24/2015","11:22",659
"550","2",2,3,33,"flower_pos","flower_inhib","flower_pos","inhibition","control","distractor","target","R","flower_pos","Y","7/24/2015","11:22",723
"551","2",2,3,34,"flower_inhib","flower_inhib","flower_pos","inhibition","inhib","target","distractor","L","flower_inhib","Y","7/24/2015","11:22",684
"552","2",2,3,35,"cat_pos","cat_pos","cat_inhib","inhibition","control","target","distractor","L","cat_pos","Y","7/24/2015","11:22",915
"553","2",2,3,36,"cat_pos","cat_inhib","cat_pos","inhibition","control","distractor","target","R","cat_pos","Y","7/24/2015","11:22",455
"554","2",2,3,37,"cat_pos","cat_pos","cat_inhib","inhibition","control","target","distractor","L","cat_pos","Y","7/24/2015","11:22",474
"555","2",2,3,38,"cat_pos","cat_pos","cat_inhib","inhibition","control","target","distractor","L","cat_pos","Y","7/24/2015","11:22",430
"556","2",2,3,39,"cat_pos","cat_pos","cat_inhib","inhibition","control","target","distractor","L","cat_pos","Y","7/24/2015","11:22",354
"557","2",2,3,40,"cat_pos","cat_inhib","cat_pos","inhibition","control","distractor","target","R","cat_pos","Y","7/24/2015","11:22",543
"558","2",2,3,41,"cat_inhib","cat_pos","cat_inhib","inhibition","inhib","distractor","target","R","cat_inhib","Y","7/24/2015","11:22",556
"559","2",2,3,42,"bicycle_pos","bicycle_pos","bicycle_inhib","inhibition","control","target","distractor","L","bicycle_pos","Y","7/24/2015","11:22",1064
"560","2",2,3,43,"bicycle_pos","bicycle_inhib","bicycle_pos","inhibition","control","distractor","target","R","bicycle_pos","Y","7/24/2015","11:22",469
"561","2",2,3,44,"bicycle_pos","bicycle_inhib","bicycle_pos","inhibition","control","distractor","target","R","bicycle_pos","Y","7/24/2015","11:22",368
"562","2",2,3,45,"bicycle_pos","bicycle_inhib","bicycle_pos","inhibition","control","distractor","target","R","bicycle_pos","Y","7/24/2015","11:22",497
"563","2",2,3,46,"bicycle_pos","bicycle_pos","bicycle_inhib","inhibition","control","target","distractor","L","bicycle_pos","Y","7/24/2015","11:22",439
"564","2",2,3,47,"bicycle_pos","bicycle_inhib","bicycle_pos","inhibition","control","distractor","target","R","bicycle_pos","Y","7/24/2015","11:22",473
"565","2",2,3,48,"bicycle_inhib","bicycle_inhib","bicycle_pos","inhibition","inhib","target","distractor","L","bicycle_inhib","Y","7/24/2015","11:22",907
"566","2",2,3,49,"banana_pos","banana_inhib","banana_pos","inhibition","control","distractor","target","R","banana_pos","Y","7/24/2015","11:22",772
"567","2",2,3,50,"banana_pos","banana_inhib","banana_pos","inhibition","control","distractor","target","R","banana_pos","Y","7/24/2015","11:22",435
"568","2",2,3,51,"banana_pos","banana_inhib","banana_pos","inhibition","control","distractor","target","R","banana_pos","Y","7/24/2015","11:22",346
"569","2",2,3,52,"banana_pos","banana_inhib","banana_pos","inhibition","control","distractor","target","R","banana_pos","Y","7/24/2015","11:22",347
"570","2",2,3,53,"banana_pos","banana_inhib","banana_pos","inhibition","control","distractor","target","R","banana_pos","Y","7/24/2015","11:22",532
"571","2",2,3,54,"banana_pos","banana_inhib","banana_pos","inhibition","control","distractor","target","R","banana_pos","Y","7/24/2015","11:22",409
"572","2",2,3,55,"banana_inhib","banana_pos","banana_inhib","inhibition","inhib","distractor","target","R","banana_inhib","Y","7/24/2015","11:22",893
"573","2",2,3,56,"teddybear_pos","teddybear_inhib","teddybear_pos","inhibition","control","distractor","target","R","teddybear_pos","Y","7/24/2015","11:22",633
"574","2",2,3,57,"teddybear_pos","teddybear_inhib","teddybear_pos","inhibition","control","distractor","target","R","teddybear_pos","Y","7/24/2015","11:22",393
"575","2",2,3,58,"teddybear_pos","teddybear_inhib","teddybear_pos","inhibition","control","distractor","target","R","teddybear_pos","Y","7/24/2015","11:22",376
"576","2",2,3,59,"teddybear_pos","teddybear_inhib","teddybear_pos","inhibition","control","distractor","target","R","teddybear_pos","Y","7/24/2015","11:22",441
"577","2",2,3,60,"teddybear_pos","teddybear_inhib","teddybear_pos","inhibition","control","distractor","target","R","teddybear_pos","Y","7/24/2015","11:22",828
"578","2",2,3,61,"teddybear_inhib","teddybear_inhib","teddybear_pos","inhibition","inhib","target","distractor","L","teddybear_inhib","Y","7/24/2015","11:22",718
"579","2",2,3,62,"dog_pos","dog_inhib","dog_pos","inhibition","control","distractor","target","R","dog_pos","Y","7/24/2015","11:22",1048
"580","2",2,3,63,"dog_pos","dog_inhib","dog_pos","inhibition","control","distractor","target","R","dog_pos","Y","7/24/2015","11:22",361
"581","2",2,3,64,"dog_pos","dog_pos","dog_inhib","inhibition","control","target","distractor","L","dog_pos","Y","7/24/2015","11:22",542
"582","2",2,3,65,"dog_pos","dog_pos","dog_inhib","inhibition","control","target","distractor","L","dog_pos","Y","7/24/2015","11:22",448
"583","2",2,3,66,"dog_pos","dog_inhib","dog_pos","inhibition","control","distractor","target","R","dog_pos","Y","7/24/2015","11:22",408
"584","2",2,3,67,"dog_pos","dog_pos","dog_inhib","inhibition","control","target","distractor","L","dog_pos","Y","7/24/2015","11:22",429
"585","2",2,3,68,"dog_inhib","dog_pos","dog_inhib","inhibition","inhib","distractor","target","R","dog_inhib","Y","7/24/2015","11:22",764
"586","2",2,3,69,"car_pos","car_inhib","car_pos","inhibition","control","distractor","target","R","car_pos","Y","7/24/2015","11:22",1154
"587","2",2,3,70,"car_pos","car_inhib","car_pos","inhibition","control","distractor","target","R","car_pos","Y","7/24/2015","11:22",536
"588","2",2,3,71,"car_pos","car_inhib","car_pos","inhibition","control","distractor","target","R","car_pos","Y","7/24/2015","11:22",450
"589","2",2,3,72,"car_pos","car_pos","car_inhib","inhibition","control","target","distractor","L","car_pos","Y","7/24/2015","11:22",782
"590","2",2,3,73,"car_pos","car_pos","car_inhib","inhibition","control","target","distractor","L","car_pos","Y","7/24/2015","11:22",474
"591","2",2,3,74,"car_inhib","car_pos","car_inhib","inhibition","inhib","distractor","target","R","car_inhib","Y","7/24/2015","11:22",828
"592","2",2,3,75,"apple_pos","apple_pos","apple_inhib","inhibition","control","target","distractor","L","apple_pos","Y","7/24/2015","11:22",720
"593","2",2,3,76,"apple_pos","apple_pos","apple_inhib","inhibition","control","target","distractor","L","apple_pos","Y","7/24/2015","11:22",335
"594","2",2,3,77,"apple_pos","apple_inhib","apple_pos","inhibition","control","distractor","target","R","apple_pos","Y","7/24/2015","11:22",459
"595","2",2,3,78,"apple_pos","apple_pos","apple_inhib","inhibition","control","target","distractor","L","apple_pos","Y","7/24/2015","11:22",402
"596","2",2,3,79,"apple_pos","apple_inhib","apple_pos","inhibition","control","distractor","target","R","apple_pos","Y","7/24/2015","11:22",355
"597","2",2,3,80,"apple_pos","apple_inhib","apple_pos","inhibition","control","distractor","target","R","apple_pos","Y","7/24/2015","11:22",550
"598","2",2,3,81,"apple_inhib","apple_pos","apple_inhib","inhibition","inhib","distractor","target","R","apple_inhib","Y","7/24/2015","11:22",637
"599","2",2,3,82,"car_pos","car_pos","car_inhib","inhibition","control","target","distractor","L","car_pos","Y","7/24/2015","11:22",702
"600","2",2,3,83,"car_pos","car_pos","car_inhib","inhibition","control","target","distractor","L","car_pos","Y","7/24/2015","11:22",433
"601","2",2,3,84,"car_pos","car_inhib","car_pos","inhibition","control","distractor","target","R","car_pos","Y","7/24/2015","11:22",474
"602","2",2,3,85,"car_pos","car_inhib","car_pos","inhibition","control","distractor","target","R","car_pos","Y","7/24/2015","11:22",586
"603","2",2,3,86,"car_pos","car_pos","car_inhib","inhibition","control","target","distractor","L","car_pos","Y","7/24/2015","11:22",478
"604","2",2,3,87,"car_inhib","car_inhib","car_pos","inhibition","inhib","target","distractor","L","car_inhib","Y","7/24/2015","11:22",815
"605","2",2,3,88,"bird_pos","bird_pos","bird_inhib","inhibition","control","target","distractor","L","bird_pos","Y","7/24/2015","11:22",651
"606","2",2,3,89,"bird_pos","bird_pos","bird_inhib","inhibition","control","target","distractor","L","bird_pos","Y","7/24/2015","11:22",559
"607","2",2,3,90,"bird_pos","bird_pos","bird_inhib","inhibition","control","target","distractor","L","bird_pos","Y","7/24/2015","11:22",563
"608","2",2,3,91,"bird_pos","bird_pos","bird_inhib","inhibition","control","target","distractor","L","bird_pos","Y","7/24/2015","11:22",403
"609","2",2,3,92,"bird_pos","bird_inhib","bird_pos","inhibition","control","distractor","target","R","bird_pos","Y","7/24/2015","11:22",423
"610","2",2,3,93,"bird_inhib","bird_inhib","bird_pos","inhibition","inhib","target","distractor","R","bird_pos","N","7/24/2015","11:22",445
"611","2",2,3,94,"dog_pos","dog_pos","dog_inhib","inhibition","control","target","distractor","L","dog_pos","Y","7/24/2015","11:22",1040
"612","2",2,3,95,"dog_pos","dog_pos","dog_inhib","inhibition","control","target","distractor","L","dog_pos","Y","7/24/2015","11:22",644
"613","2",2,3,96,"dog_pos","dog_pos","dog_inhib","inhibition","control","target","distractor","L","dog_pos","Y","7/24/2015","11:22",370
"614","2",2,3,97,"dog_pos","dog_inhib","dog_pos","inhibition","control","distractor","target","R","dog_pos","Y","7/24/2015","11:22",515
"615","2",2,3,98,"dog_pos","dog_inhib","dog_pos","inhibition","control","distractor","target","R","dog_pos","Y","7/24/2015","11:22",359
"616","2",2,3,99,"dog_pos","dog_pos","dog_inhib","inhibition","control","target","distractor","L","dog_pos","Y","7/24/2015","11:22",682
"617","2",2,3,100,"dog_inhib","dog_pos","dog_inhib","inhibition","inhib","distractor","target","R","dog_inhib","Y","7/24/2015","11:22",706
"618","2",2,3,101,"apple_pos","apple_inhib","apple_pos","inhibition","control","distractor","target","R","apple_pos","Y","7/24/2015","11:22",880
"619","2",2,3,102,"apple_pos","apple_pos","apple_inhib","inhibition","control","target","distractor","L","apple_pos","Y","7/24/2015","11:22",460
"620","2",2,3,103,"apple_pos","apple_inhib","apple_pos","inhibition","control","distractor","target","R","apple_pos","Y","7/24/2015","11:22",337
"621","2",2,3,104,"apple_pos","apple_inhib","apple_pos","inhibition","control","distractor","target","R","apple_pos","Y","7/24/2015","11:22",602
"622","2",2,3,105,"apple_pos","apple_inhib","apple_pos","inhibition","control","distractor","target","R","apple_pos","Y","7/24/2015","11:22",385
"623","2",2,3,106,"apple_pos","apple_pos","apple_inhib","inhibition","control","target","distractor","L","apple_pos","Y","7/24/2015","11:22",490
"624","2",2,3,107,"apple_inhib","apple_inhib","apple_pos","inhibition","inhib","target","distractor","L","apple_inhib","Y","7/24/2015","11:22",806
"625","2",2,3,108,"flower_pos","flower_pos","flower_inhib","inhibition","control","target","distractor","L","flower_pos","Y","7/24/2015","11:22",679
"626","2",2,3,109,"flower_pos","flower_inhib","flower_pos","inhibition","control","distractor","target","R","flower_pos","Y","7/24/2015","11:22",427
"627","2",2,3,110,"flower_pos","flower_inhib","flower_pos","inhibition","control","distractor","target","R","flower_pos","Y","7/24/2015","11:22",362
"628","2",2,3,111,"flower_pos","flower_pos","flower_inhib","inhibition","control","target","distractor","L","flower_pos","Y","7/24/2015","11:22",462
"629","2",2,3,112,"flower_pos","flower_inhib","flower_pos","inhibition","control","distractor","target","R","flower_pos","Y","7/24/2015","11:22",531
"630","2",2,3,113,"flower_pos","flower_inhib","flower_pos","inhibition","control","distractor","target","R","flower_pos","Y","7/24/2015","11:22",420
"631","2",2,3,114,"flower_inhib","flower_inhib","flower_pos","inhibition","inhib","target","distractor","L","flower_inhib","Y","7/24/2015","11:22",744
"632","2",2,3,115,"teddybear_pos","teddybear_pos","teddybear_inhib","inhibition","control","target","distractor","L","teddybear_pos","Y","7/24/2015","11:22",639
"633","2",2,3,116,"teddybear_pos","teddybear_inhib","teddybear_pos","inhibition","control","distractor","target","R","teddybear_pos","Y","7/24/2015","11:22",423
"634","2",2,3,117,"teddybear_pos","teddybear_pos","teddybear_inhib","inhibition","control","target","distractor","L","teddybear_pos","Y","7/24/2015","11:22",408
"635","2",2,3,118,"teddybear_pos","teddybear_pos","teddybear_inhib","inhibition","control","target","distractor","L","teddybear_pos","Y","7/24/2015","11:22",498
"636","2",2,3,119,"teddybear_pos","teddybear_pos","teddybear_inhib","inhibition","control","target","distractor","L","teddybear_pos","Y","7/24/2015","11:22",647
"637","2",2,3,120,"teddybear_inhib","teddybear_inhib","teddybear_pos","inhibition","inhib","target","distractor","L","teddybear_inhib","Y","7/24/2015","11:22",567
"638","2",2,3,121,"cat_pos","cat_pos","cat_inhib","inhibition","control","target","distractor","L","cat_pos","Y","7/24/2015","11:22",898
"639","2",2,3,122,"cat_pos","cat_inhib","cat_pos","inhibition","control","distractor","target","R","cat_pos","Y","7/24/2015","11:22",434
"640","2",2,3,123,"cat_pos","cat_inhib","cat_pos","inhibition","control","distractor","target","R","cat_pos","Y","7/24/2015","11:22",416
"641","2",2,3,124,"cat_pos","cat_inhib","cat_pos","inhibition","control","distractor","target","R","cat_pos","Y","7/24/2015","11:22",724
"642","2",2,3,125,"cat_pos","cat_pos","cat_inhib","inhibition","control","target","distractor","L","cat_pos","Y","7/24/2015","11:22",435
"643","2",2,3,126,"cat_inhib","cat_pos","cat_inhib","inhibition","inhib","distractor","target","R","cat_inhib","Y","7/24/2015","11:22",651
"644","2",2,3,127,"lamp_pos","lamp_inhib","lamp_pos","inhibition","control","distractor","target","R","lamp_pos","Y","7/24/2015","11:22",719
"645","2",2,3,128,"lamp_pos","lamp_inhib","lamp_pos","inhibition","control","distractor","target","R","lamp_pos","Y","7/24/2015","11:22",360
"646","2",2,3,129,"lamp_pos","lamp_inhib","lamp_pos","inhibition","control","distractor","target","R","lamp_pos","Y","7/24/2015","11:22",426
"647","2",2,3,130,"lamp_pos","lamp_pos","lamp_inhib","inhibition","control","target","distractor","L","lamp_pos","Y","7/24/2015","11:22",449
"648","2",2,3,131,"lamp_pos","lamp_pos","lamp_inhib","inhibition","control","target","distractor","L","lamp_pos","Y","7/24/2015","11:22",417
"649","2",2,3,132,"lamp_pos","lamp_pos","lamp_inhib","inhibition","control","target","distractor","L","lamp_pos","Y","7/24/2015","11:22",547
"650","2",2,3,133,"lamp_inhib","lamp_pos","lamp_inhib","inhibition","inhib","distractor","target","R","lamp_inhib","Y","7/24/2015","11:22",536
"651","2",2,3,134,"bicycle_pos","bicycle_inhib","bicycle_pos","inhibition","control","distractor","target","R","bicycle_pos","Y","7/24/2015","11:22",718
"652","2",2,3,135,"bicycle_pos","bicycle_pos","bicycle_inhib","inhibition","control","target","distractor","L","bicycle_pos","Y","7/24/2015","11:22",549
"653","2",2,3,136,"bicycle_pos","bicycle_inhib","bicycle_pos","inhibition","control","distractor","target","L","bicycle_inhib","N","7/24/2015","11:22",465
"654","2",2,3,137,"bicycle_pos","bicycle_pos","bicycle_inhib","inhibition","control","target","distractor","L","bicycle_pos","Y","7/24/2015","11:22",643
"655","2",2,3,138,"bicycle_pos","bicycle_pos","bicycle_inhib","inhibition","control","target","distractor","L","bicycle_pos","Y","7/24/2015","11:22",715
"656","2",2,3,139,"bicycle_pos","bicycle_inhib","bicycle_pos","inhibition","control","distractor","target","R","bicycle_pos","Y","7/24/2015","11:22",692
"657","2",2,3,140,"bicycle_inhib","bicycle_pos","bicycle_inhib","inhibition","inhib","distractor","target","R","bicycle_inhib","Y","7/24/2015","11:22",586
"658","2",2,3,141,"cup_pos","cup_inhib","cup_pos","inhibition","control","distractor","target","R","cup_pos","Y","7/24/2015","11:22",873
"659","2",2,3,142,"cup_pos","cup_pos","cup_inhib","inhibition","control","target","distractor","L","cup_pos","Y","7/24/2015","11:22",630
"660","2",2,3,143,"cup_pos","cup_pos","cup_inhib","inhibition","control","target","distractor","L","cup_pos","Y","7/24/2015","11:22",442
"661","2",2,3,144,"cup_pos","cup_inhib","cup_pos","inhibition","control","distractor","target","R","cup_pos","Y","7/24/2015","11:22",487
"662","2",2,3,145,"cup_pos","cup_pos","cup_inhib","inhibition","control","target","distractor","L","cup_pos","Y","7/24/2015","11:22",481
"663","2",2,3,146,"cup_pos","cup_pos","cup_inhib","inhibition","control","target","distractor","L","cup_pos","Y","7/24/2015","11:22",375
"664","2",2,3,147,"cup_inhib","cup_inhib","cup_pos","inhibition","inhib","target","distractor","L","cup_inhib","Y","7/24/2015","11:22",736
"665","2",2,3,148,"banana_pos","banana_inhib","banana_pos","inhibition","control","distractor","target","R","banana_pos","Y","7/24/2015","11:22",913
"666","2",2,3,149,"banana_pos","banana_pos","banana_inhib","inhibition","control","target","distractor","L","banana_pos","Y","7/24/2015","11:22",821
"667","2",2,3,150,"banana_pos","banana_inhib","banana_pos","inhibition","control","distractor","target","R","banana_pos","Y","7/24/2015","11:22",505
"668","2",2,3,151,"banana_pos","banana_pos","banana_inhib","inhibition","control","target","distractor","L","banana_pos","Y","7/24/2015","11:22",481
"669","2",2,3,152,"banana_pos","banana_pos","banana_inhib","inhibition","control","target","distractor","L","banana_pos","Y","7/24/2015","11:22",715
"670","2",2,3,153,"banana_pos","banana_pos","banana_inhib","inhibition","control","target","distractor","L","banana_pos","Y","7/24/2015","11:22",618
"671","2",2,3,154,"banana_inhib","banana_pos","banana_inhib","inhibition","inhib","distractor","target","R","banana_inhib","Y","7/24/2015","11:22",530
"672","2",2,3,155,"cookie_pos","cookie_inhib","cookie_pos","inhibition","control","distractor","target","R","cookie_pos","Y","7/24/2015","11:22",638
"673","2",2,3,156,"cookie_pos","cookie_pos","cookie_inhib","inhibition","control","target","distractor","L","cookie_pos","Y","7/24/2015","11:22",610
"674","2",2,3,157,"cookie_pos","cookie_pos","cookie_inhib","inhibition","control","target","distractor","L","cookie_pos","Y","7/24/2015","11:22",451
"675","2",2,3,158,"cookie_pos","cookie_pos","cookie_inhib","inhibition","control","target","distractor","L","cookie_pos","Y","7/24/2015","11:22",648
"676","2",2,3,159,"cookie_pos","cookie_pos","cookie_inhib","inhibition","control","target","distractor","L","cookie_pos","Y","7/24/2015","11:22",464
"677","2",2,3,160,"cookie_pos","cookie_pos","cookie_inhib","inhibition","control","target","distractor","L","cookie_pos","Y","7/24/2015","11:22",457
"678","2",2,3,161,"cookie_inhib","cookie_pos","cookie_inhib","inhibition","inhib","distractor","target","R","cookie_inhib","Y","7/24/2015","11:22",632
"679","2",2,3,1,"cat_control","cat_foil","cat_control","implicature","unambiguous","distractor","target","R","cat_control","Y","7/24/2015","11:22",2468
