X1,subid,list,game.order,trial.num,word,leftpic,rightpic,game,trial.type,leftpic.type,rightpic.type,side.chosen,pic.chosen,response,date,timestamp,rt,age,agegroup,gender,english,response_numeric,log_rt,m_log_rt,sd_log_rt
1,111015_1,1,2,35,lamp_implic,lamp_control,lamp_implic,implicature,implicature,distractor,target,L,lamp_control,N,11/10/2015,13:10:00,1.385,4.97,4,F,100,0,0.32570013963930183,0.34839901594443556,0.5220063149724423
2,111015_1,1,2,34,banana_inhib,banana_inhib,banana_pos,inhibition,inhib,target,distractor,L,banana_inhib,Y,11/10/2015,13:10:00,1.721,4.97,4,F,100,1,0.5429055172294024,0.34839901594443556,0.5220063149724423
3,111015_1,1,2,33,car_control,car_control,car_foil,implicature,unambiguous,target,distractor,L,car_control,Y,11/10/2015,13:10:00,1.511,4.97,4,F,100,1,0.41277168329060243,0.34839901594443556,0.5220063149724423
4,111015_1,1,2,34,cookie_implic,cookie_implic,cookie_control,implicature,implicature,target,distractor,R,cookie_control,N,11/10/2015,13:10:00,1.22,4.97,4,F,100,0,0.19885085874516517,0.34839901594443556,0.5220063149724423
5,111015_1,1,2,33,banana_pos,banana_inhib,banana_pos,inhibition,control,distractor,target,R,banana_pos,Y,11/10/2015,13:10:00,0.969,4.97,4,F,100,1,-0.03149066709137085,0.34839901594443556,0.5220063149724423
6,111015_1,1,2,64,lamp_pos,lamp_pos,lamp_inhib,inhibition,control,target,distractor,L,lamp_pos,Y,11/10/2015,13:10:00,1.296,4.97,4,F,100,1,0.25928259793008296,0.34839901594443556,0.5220063149724423
7,111015_1,1,2,14,bicycle_neg,bicycle_neg,bicycle_pos,negation,negative,target,distractor,L,bicycle_neg,Y,11/10/2015,13:10:00,0.851000000000001,4.97,4,F,100,1,-0.16134315040876177,0.34839901594443556,0.5220063149724423
8,111015_1,1,2,72,bird_inhib,bird_inhib,bird_pos,inhibition,inhib,target,distractor,L,bird_inhib,Y,11/10/2015,13:10:00,1.848,4.97,4,F,100,1,0.6141039732194925,0.34839901594443556,0.5220063149724423
9,111015_1,1,2,32,cup_control,cup_control,cup_foil,implicature,unambiguous,target,distractor,L,cup_control,Y,11/10/2015,13:10:00,1.783,4.97,4,F,100,1,0.5782973388810033,0.34839901594443556,0.5220063149724423
10,111015_1,1,2,74,cup_pos,cup_inhib,cup_pos,inhibition,control,distractor,target,R,cup_pos,Y,11/10/2015,13:10:00,2.003,4.97,4,F,100,1,0.6946460566836813,0.34839901594443556,0.5220063149724423
11,111015_1,1,2,36,dog_control,dog_foil,dog_control,implicature,unambiguous,distractor,target,R,dog_control,Y,11/10/2015,13:10:00,1.185,4.97,4,F,100,1,0.16974277458709455,0.34839901594443556,0.5220063149724423
12,111015_1,1,2,15,cookie_pos,cookie_neg,cookie_pos,negation,positive,distractor,target,R,cookie_pos,Y,11/10/2015,13:10:00,1.628,4.97,4,F,100,1,0.4873522675803485,0.34839901594443556,0.5220063149724423
13,111015_1,1,2,32,banana_pos,banana_inhib,banana_pos,inhibition,control,distractor,target,R,banana_pos,Y,11/10/2015,13:10:00,1.593,4.97,4,F,100,1,0.46561903092791146,0.34839901594443556,0.5220063149724423
14,111015_1,1,2,30,teddybear_control,teddybear_foil,teddybear_control,implicature,unambiguous,distractor,target,R,teddybear_control,Y,11/10/2015,13:10:00,2.812,4.97,4,F,100,1,1.0338959739484184,0.34839901594443556,0.5220063149724423
15,111015_1,1,2,66,bird_pos,bird_inhib,bird_pos,inhibition,control,distractor,target,R,bird_pos,Y,11/10/2015,13:10:00,1.79,4.97,4,F,100,1,0.5822156198526637,0.34839901594443556,0.5220063149724423
16,111015_1,1,2,37,cookie_implic,cookie_implic,cookie_control,implicature,implicature,target,distractor,L,cookie_implic,Y,11/10/2015,13:10:00,0.944,4.97,4,F,100,1,-0.057629112836636416,0.34839901594443556,0.5220063149724423
17,111015_1,1,2,69,bird_pos,bird_inhib,bird_pos,inhibition,control,distractor,target,R,bird_pos,Y,11/10/2015,13:10:00,0.735,4.97,4,F,100,1,-0.3078847797693004,0.34839901594443556,0.5220063149724423
18,111015_1,1,2,8,bicycle_implic,bicycle_implic,bicycle_control,implicature,implicature,target,distractor,L,bicycle_implic,Y,11/10/2015,13:10:00,1.328,4.97,4,F,100,1,0.28367405105424215,0.34839901594443556,0.5220063149724423
19,111015_1,1,2,70,bird_pos,bird_inhib,bird_pos,inhibition,control,distractor,target,R,bird_pos,Y,11/10/2015,13:10:00,1.394,4.97,4,F,100,1,0.3321773123383321,0.34839901594443556,0.5220063149724423
20,111015_1,1,2,63,lamp_pos,lamp_inhib,lamp_pos,inhibition,control,distractor,target,L,lamp_inhib,N,11/10/2015,13:10:00,1.003,4.97,4,F,100,0,0.002995508979798371,0.34839901594443556,0.5220063149724423
21,111015_1,1,2,68,bird_pos,bird_inhib,bird_pos,inhibition,control,distractor,target,R,bird_pos,Y,11/10/2015,13:10:00,0.774,4.97,4,F,100,1,-0.2561834053924099,0.34839901594443556,0.5220063149724423
23,111015_1,1,2,4,cat_control,cat_control,cat_foil,implicature,unambiguous,target,distractor,L,cat_control,Y,11/10/2015,13:10:00,1.573,4.97,4,F,100,1,0.45298462407614076,0.34839901594443556,0.5220063149724423
24,111015_1,1,2,73,cup_pos,cup_inhib,cup_pos,inhibition,control,distractor,target,R,cup_pos,Y,11/10/2015,13:10:00,1.322,4.97,4,F,100,1,0.2791457414294946,0.34839901594443556,0.5220063149724423
26,111015_1,1,2,7,dog_control,dog_foil,dog_control,implicature,unambiguous,distractor,target,R,dog_control,Y,11/10/2015,13:10:00,1.44,4.97,4,F,100,1,0.36464311358790924,0.34839901594443556,0.5220063149724423
27,111015_1,1,2,65,lamp_inhib,lamp_pos,lamp_inhib,inhibition,inhib,distractor,target,R,lamp_inhib,Y,11/10/2015,13:10:00,1.232,4.97,4,F,100,1,0.208638865111328,0.34839901594443556,0.5220063149724423
29,111015_1,1,2,31,bicycle_implic,bicycle_control,bicycle_implic,implicature,implicature,distractor,target,R,bicycle_implic,Y,11/10/2015,13:10:00,2.123,4.97,4,F,100,1,0.7528301827211191,0.34839901594443556,0.5220063149724423
30,111015_1,1,2,71,bird_pos,bird_inhib,bird_pos,inhibition,control,distractor,target,L,bird_inhib,N,11/10/2015,13:10:00,3.482,4.97,4,F,100,0,1.2476068413459973,0.34839901594443556,0.5220063149724423
31,111015_1,1,2,76,cup_pos,cup_pos,cup_inhib,inhibition,control,target,distractor,L,cup_pos,Y,11/10/2015,13:10:00,2.23,4.97,4,F,100,1,0.8020015854720274,0.34839901594443556,0.5220063149724423
32,111015_1,1,2,9,lamp_control,lamp_foil,lamp_control,implicature,unambiguous,distractor,target,R,lamp_control,Y,11/10/2015,13:10:00,1.278,4.97,4,F,100,1,0.24529635595534308,0.34839901594443556,0.5220063149724423
33,111015_1,1,2,5,apple_pos,apple_pos,apple_inhib,inhibition,control,target,distractor,R,apple_inhib,N,11/10/2015,13:10:00,1.875,4.97,4,F,100,0,0.6286086594223741,0.34839901594443556,0.5220063149724423
34,111015_1,1,2,31,banana_pos,banana_inhib,banana_pos,inhibition,control,distractor,target,R,banana_pos,Y,11/10/2015,13:10:00,1.6,4.97,4,F,100,1,0.47000362924573563,0.34839901594443556,0.5220063149724423
35,111015_1,1,2,3,apple_implic,apple_control,apple_implic,implicature,implicature,distractor,target,R,apple_implic,Y,11/10/2015,13:10:00,1.888,4.97,4,F,100,1,0.6355180677233089,0.34839901594443556,0.5220063149724423
36,111015_1,1,2,12,banana_pos,banana_neg,banana_pos,negation,positive,distractor,target,R,banana_pos,Y,11/10/2015,13:10:00,1.228,4.97,4,F,100,1,0.2053868297249507,0.34839901594443556,0.5220063149724423
37,111015_1,1,2,46,banana_neg,banana_pos,banana_neg,negation,negative,distractor,target,L,banana_pos,N,11/10/2015,13:10:00,0.741000000000001,4.97,4,F,100,0,-0.2997546536860488,0.34839901594443556,0.5220063149724423
38,111015_1,1,2,7,bicycle_pos,bicycle_pos,bicycle_neg,negation,positive,target,distractor,L,bicycle_pos,Y,11/10/2015,13:10:00,1.322,4.97,4,F,100,1,0.2791457414294946,0.34839901594443556,0.5220063149724423
39,111015_1,1,2,41,lamp_neg,lamp_neg,lamp_pos,negation,negative,target,distractor,R,lamp_pos,N,11/10/2015,13:10:00,0.742999999999997,4.97,4,F,100,0,-0.2970592342643819,0.34839901594443556,0.5220063149724423
40,111015_1,1,2,6,teddybear_implic,teddybear_implic,teddybear_control,implicature,implicature,target,distractor,L,teddybear_implic,Y,11/10/2015,13:10:00,1.549,4.97,4,F,100,1,0.4376095614347315,0.34839901594443556,0.5220063149724423
41,111015_1,1,2,29,flower_control,flower_foil,flower_control,implicature,unambiguous,distractor,target,R,flower_control,Y,11/10/2015,13:10:00,3.588,4.97,4,F,100,1,1.2775949441965497,0.34839901594443556,0.5220063149724423
42,111015_1,1,2,7,car_pos,car_pos,car_inhib,inhibition,control,target,distractor,R,car_inhib,N,11/10/2015,13:10:00,1.868,4.97,4,F,100,0,0.6248683398066509,0.34839901594443556,0.5220063149724423
43,111015_1,1,2,8,car_pos,car_pos,car_inhib,inhibition,control,target,distractor,R,car_inhib,N,11/10/2015,13:10:00,1.743,4.97,4,F,100,0,0.5556077665378839,0.34839901594443556,0.5220063149724423
44,111015_1,1,2,48,apple_pos,apple_pos,apple_neg,negation,positive,target,distractor,L,apple_pos,Y,11/10/2015,13:10:00,1.49,4.97,4,F,100,1,0.3987761199573678,0.34839901594443556,0.5220063149724423
45,111015_1,1,2,67,bird_pos,bird_inhib,bird_pos,inhibition,control,distractor,target,R,bird_pos,Y,11/10/2015,13:10:00,1.498,4.97,4,F,100,1,0.40413088509502776,0.34839901594443556,0.5220063149724423
46,111015_1,1,2,38,bird_implic,bird_implic,bird_control,implicature,implicature,target,distractor,R,bird_control,N,11/10/2015,13:10:00,0.753,4.97,4,F,100,0,-0.2836900511822435,0.34839901594443556,0.5220063149724423
47,111015_1,1,2,1,banana_control,banana_control,banana_foil,implicature,unambiguous,target,distractor,L,banana_control,Y,11/10/2015,13:10:00,3.42,4.97,4,F,100,1,1.2296405510745139,0.34839901594443556,0.5220063149724423
48,111015_1,1,2,28,cat_implic,cat_control,cat_implic,implicature,implicature,distractor,target,R,cat_implic,Y,11/10/2015,13:10:00,2.246,4.97,4,F,100,1,0.8091508563162514,0.34839901594443556,0.5220063149724423
50,111015_1,1,2,58,cat_pos,cat_pos,cat_neg,negation,positive,target,distractor,L,cat_pos,Y,11/10/2015,13:10:00,2.307,4.97,4,F,100,1,0.8359479791916166,0.34839901594443556,0.5220063149724423
51,111015_1,1,2,59,flower_pos,flower_neg,flower_pos,negation,positive,distractor,target,R,flower_pos,Y,11/10/2015,13:10:00,1.238,4.97,4,F,100,1,0.21349717426240436,0.34839901594443556,0.5220063149724423
52,111015_1,1,2,60,cookie_neg,cookie_pos,cookie_neg,negation,negative,distractor,target,R,cookie_neg,Y,11/10/2015,13:10:00,1.758,4.97,4,F,100,1,0.5641767992629853,0.34839901594443556,0.5220063149724423
54,111015_1,1,2,6,apple_inhib,apple_pos,apple_inhib,inhibition,inhib,distractor,target,L,apple_pos,N,11/10/2015,13:10:00,3.373,4.97,4,F,100,0,1.2158025560795132,0.34839901594443556,0.5220063149724423
55,111015_1,1,2,44,bird_neg,bird_neg,bird_pos,negation,negative,target,distractor,L,bird_neg,Y,11/10/2015,13:10:00,0.767,4.97,4,F,100,1,-0.26526847761488087,0.34839901594443556,0.5220063149724423
56,111015_1,1,2,45,dog_neg,dog_neg,dog_pos,negation,negative,target,distractor,R,dog_pos,N,11/10/2015,13:10:00,1.209,4.97,4,F,100,0,0.18979357163265567,0.34839901594443556,0.5220063149724423
57,111015_1,1,2,47,cookie_pos,cookie_pos,cookie_neg,negation,positive,target,distractor,R,cookie_neg,N,11/10/2015,13:10:00,2.418,4.97,4,F,100,0,0.882940752192601,0.34839901594443556,0.5220063149724423
58,111015_1,1,2,75,cup_pos,cup_pos,cup_inhib,inhibition,control,target,distractor,L,cup_pos,Y,11/10/2015,13:10:00,1.405,4.97,4,F,100,1,0.3400373027857091,0.34839901594443556,0.5220063149724423
60,111015_1,1,2,78,cup_pos,cup_inhib,cup_pos,inhibition,control,distractor,target,R,cup_pos,Y,11/10/2015,13:10:00,1.447,4.97,4,F,100,1,0.36949244764934686,0.34839901594443556,0.5220063149724423
61,111015_1,1,2,2,cup_control,cup_control,cup_foil,implicature,unambiguous,target,distractor,L,cup_control,Y,11/10/2015,13:10:00,2.555,4.97,4,F,100,1,0.9380522236556679,0.34839901594443556,0.5220063149724423
62,111015_1,1,2,29,banana_pos,banana_pos,banana_inhib,inhibition,control,target,distractor,L,banana_pos,Y,11/10/2015,13:10:00,1.161,4.97,4,F,100,1,0.14928170271575447,0.34839901594443556,0.5220063149724423
63,111015_1,1,2,28,banana_pos,banana_pos,banana_inhib,inhibition,control,target,distractor,R,banana_inhib,N,11/10/2015,13:10:00,1.38,4.97,4,F,100,0,0.3220834991691132,0.34839901594443556,0.5220063149724423
64,111015_1,1,2,11,flower_pos,flower_neg,flower_pos,negation,positive,distractor,target,L,flower_neg,N,11/10/2015,13:10:00,0.962,4.97,4,F,100,0,-0.038740828316430595,0.34839901594443556,0.5220063149724423
65,111015_1,1,2,62,lamp_pos,lamp_pos,lamp_inhib,inhibition,control,target,distractor,L,lamp_pos,Y,11/10/2015,13:10:00,1.165,4.97,4,F,100,1,0.15272108701766393,0.34839901594443556,0.5220063149724423
66,111015_1,1,2,40,car_neg,car_pos,car_neg,negation,negative,distractor,target,L,car_pos,N,11/10/2015,13:10:00,0.849,4.97,4,F,100,0,-0.16369609267078977,0.34839901594443556,0.5220063149724423
67,111015_1,1,2,43,bicycle_neg,bicycle_neg,bicycle_pos,negation,negative,target,distractor,R,bicycle_pos,N,11/10/2015,13:10:00,1.174,4.97,4,F,100,0,0.16041672140590466,0.34839901594443556,0.5220063149724423
68,111015_1,1,2,20,cup_neg,cup_neg,cup_pos,negation,negative,target,distractor,L,cup_neg,Y,11/10/2015,13:10:00,0.799000000000001,4.97,4,F,100,1,-0.22439433321586108,0.34839901594443556,0.5220063149724423
69,111015_1,1,2,44,bicycle_control,bicycle_control,bicycle_foil,implicature,unambiguous,target,distractor,L,bicycle_control,Y,11/10/2015,13:10:00,1.046,4.97,4,F,100,1,0.044973365642731196,0.34839901594443556,0.5220063149724423
70,111015_1,1,2,45,teddybear_control,teddybear_foil,teddybear_control,implicature,unambiguous,distractor,target,L,teddybear_foil,N,11/10/2015,13:10:00,0.296,4.97,4,F,100,0,-1.2173958246580767,0.34839901594443556,0.5220063149724423
71,111015_1,1,2,42,cat_pos,cat_inhib,cat_pos,inhibition,control,distractor,target,R,cat_pos,Y,11/10/2015,13:10:00,2.431,4.97,4,F,100,1,0.8883026953339863,0.34839901594443556,0.5220063149724423
74,111015_1,1,2,79,cup_inhib,cup_inhib,cup_pos,inhibition,inhib,target,distractor,L,cup_inhib,Y,11/10/2015,13:10:00,1.739,4.97,4,F,100,1,0.5533102353721461,0.34839901594443556,0.5220063149724423
75,111015_1,1,2,1,apple_pos,apple_pos,apple_inhib,inhibition,control,target,distractor,L,apple_pos,Y,11/10/2015,13:10:00,1.507,4.97,4,F,100,1,0.4101209196443583,0.34839901594443556,0.5220063149724423
76,111015_1,1,2,57,bicycle_neg,bicycle_pos,bicycle_neg,negation,negative,distractor,target,R,bicycle_neg,Y,11/10/2015,13:10:00,1.614,4.97,4,F,100,1,0.4787155698477571,0.34839901594443556,0.5220063149724423
80,111015_1,1,2,5,cookie_control,cookie_foil,cookie_control,implicature,unambiguous,distractor,target,R,cookie_control,Y,11/10/2015,13:10:00,1.299,4.97,4,F,100,1,0.2615947376884624,0.34839901594443556,0.5220063149724423
81,111015_1,1,2,61,lamp_pos,lamp_pos,lamp_inhib,inhibition,control,target,distractor,L,lamp_pos,Y,11/10/2015,13:10:00,1.403,4.97,4,F,100,1,0.3386128011203239,0.34839901594443556,0.5220063149724423
82,111015_1,1,2,42,cup_pos,cup_pos,cup_neg,negation,positive,target,distractor,L,cup_pos,Y,11/10/2015,13:10:00,1.427,4.97,4,F,100,1,0.3555743384946994,0.34839901594443556,0.5220063149724423
84,111015_1,1,2,16,bird_control,bird_control,bird_foil,implicature,unambiguous,target,distractor,L,bird_control,Y,11/10/2015,13:10:00,1.419,4.97,4,F,100,1,0.34995239817790563,0.34839901594443556,0.5220063149724423
85,111015_1,1,2,21,teddybear_neg,teddybear_neg,teddybear_pos,negation,negative,target,distractor,L,teddybear_neg,Y,11/10/2015,13:10:00,1.91,4.97,4,F,100,1,0.6471032420585384,0.34839901594443556,0.5220063149724423
86,111015_1,1,2,10,car_pos,car_inhib,car_pos,inhibition,control,distractor,target,L,car_inhib,N,11/10/2015,13:10:00,0.297,4.97,4,F,100,0,-1.2140231401794375,0.34839901594443556,0.5220063149724423
87,111015_1,1,2,27,apple_implic,apple_control,apple_implic,implicature,implicature,distractor,target,R,apple_implic,Y,11/10/2015,13:10:00,3.572,4.97,4,F,100,1,1.2731256630142527,0.34839901594443556,0.5220063149724423
88,111015_1,1,2,30,banana_pos,banana_pos,banana_inhib,inhibition,control,target,distractor,L,banana_pos,Y,11/10/2015,13:10:00,1.929,4.97,4,F,100,1,0.6570017339235921,0.34839901594443556,0.5220063149724423
89,111015_1,1,2,26,teddybear_pos,teddybear_inhib,teddybear_pos,inhibition,control,distractor,target,R,teddybear_pos,Y,11/10/2015,13:10:00,1.425,4.97,4,F,100,1,0.3541718137206139,0.34839901594443556,0.5220063149724423
90,111015_1,1,2,27,teddybear_inhib,teddybear_inhib,teddybear_pos,inhibition,inhib,target,distractor,L,teddybear_inhib,Y,11/10/2015,13:10:00,1.166,4.97,4,F,100,1,0.15357908792830058,0.34839901594443556,0.5220063149724423
91,111015_1,1,2,10,bird_neg,bird_pos,bird_neg,negation,negative,distractor,target,R,bird_neg,Y,11/10/2015,13:10:00,0.696,4.97,4,F,100,1,-0.3624056186477175,0.34839901594443556,0.5220063149724423
92,111015_1,1,2,6,cup_neg,cup_neg,cup_pos,negation,negative,target,distractor,R,cup_pos,N,11/10/2015,13:10:00,1.579,4.97,4,F,100,0,0.45679173527350503,0.34839901594443556,0.5220063149724423
95,111015_1,1,2,19,bird_pos,bird_neg,bird_pos,negation,positive,distractor,target,R,bird_pos,Y,11/10/2015,13:10:00,0.692,4.97,4,F,100,1,-0.36816932336446756,0.34839901594443556,0.5220063149724423
96,111015_1,1,2,17,lamp_pos,lamp_neg,lamp_pos,negation,positive,distractor,target,R,lamp_pos,Y,11/10/2015,13:10:00,1.088,4.97,4,F,100,1,0.08434114843375096,0.34839901594443556,0.5220063149724423
97,111015_1,1,2,13,car_inhib,car_inhib,car_pos,inhibition,inhib,target,distractor,L,car_inhib,Y,11/10/2015,13:10:00,4.714,4.97,4,F,100,1,1.5505368045139394,0.34839901594443556,0.5220063149724423
98,111015_1,1,2,17,cat_implic,cat_implic,cat_control,implicature,implicature,target,distractor,L,cat_implic,Y,11/10/2015,13:10:00,1.688,4.97,4,F,100,1,0.5235443961737654,0.34839901594443556,0.5220063149724423
100,111015_1,1,2,77,cup_pos,cup_inhib,cup_pos,inhibition,control,distractor,target,L,cup_inhib,N,11/10/2015,13:10:00,1.129,4.97,4,F,100,0,0.12133228516752496,0.34839901594443556,0.5220063149724423
101,111015_1,1,2,53,dog_pos,dog_neg,dog_pos,negation,positive,distractor,target,L,dog_neg,N,11/10/2015,13:10:00,1.355,4.97,4,F,100,0,0.3038014543316642,0.34839901594443556,0.5220063149724423
102,111015_1,1,2,35,bicycle_pos,bicycle_pos,bicycle_inhib,inhibition,control,target,distractor,L,bicycle_pos,Y,11/10/2015,13:10:00,2.183,4.97,4,F,100,1,0.7807000775678068,0.34839901594443556,0.5220063149724423
103,111015_1,1,2,39,banana_implic,banana_control,banana_implic,implicature,implicature,distractor,target,R,banana_implic,Y,11/10/2015,13:10:00,0.518,4.97,4,F,100,1,-0.657780036722654,0.34839901594443556,0.5220063149724423
104,111015_1,1,2,55,bird_pos,bird_pos,bird_neg,negation,positive,target,distractor,L,bird_pos,Y,11/10/2015,13:10:00,0.899,4.97,4,F,100,1,-0.10647224451051676,0.34839901594443556,0.5220063149724423
105,111015_1,1,2,38,bicycle_pos,bicycle_inhib,bicycle_pos,inhibition,control,distractor,target,R,bicycle_pos,Y,11/10/2015,13:10:00,4.216,4.97,4,F,100,1,1.4388868112390611,0.34839901594443556,0.5220063149724423
106,111015_1,1,2,39,cat_neg,cat_pos,cat_neg,negation,negative,distractor,target,R,cat_neg,Y,11/10/2015,13:10:00,0.936000000000001,4.97,4,F,100,1,-0.06613980250454388,0.34839901594443556,0.5220063149724423
107,111015_1,1,2,40,bicycle_pos,bicycle_inhib,bicycle_pos,inhibition,control,distractor,target,R,bicycle_pos,Y,11/10/2015,13:10:00,2.228,4.97,4,F,100,1,0.8011043220650377,0.34839901594443556,0.5220063149724423
108,111015_1,1,2,18,apple_pos,apple_pos,apple_neg,negation,positive,target,distractor,L,apple_pos,Y,11/10/2015,13:10:00,1.069,4.97,4,F,100,1,0.06672363204290813,0.34839901594443556,0.5220063149724423
109,111015_1,1,2,15,dog_pos,dog_pos,dog_inhib,inhibition,control,target,distractor,L,dog_pos,Y,11/10/2015,13:10:00,3.047,4.97,4,F,100,1,1.114157500003572,0.34839901594443556,0.5220063149724423
110,111015_1,1,2,44,cat_pos,cat_pos,cat_inhib,inhibition,control,target,distractor,R,cat_inhib,N,11/10/2015,13:10:00,1.522,4.97,4,F,100,0,0.4200252594394941,0.34839901594443556,0.5220063149724423
111,111015_1,1,2,16,dog_pos,dog_inhib,dog_pos,inhibition,control,distractor,target,L,dog_inhib,N,11/10/2015,13:10:00,2.217,4.97,4,F,100,0,0.7961549306341744,0.34839901594443556,0.5220063149724423
112,111015_1,1,2,18,cookie_implic,cookie_implic,cookie_control,implicature,implicature,target,distractor,R,cookie_control,N,11/10/2015,13:10:00,0.909,4.97,4,F,100,0,-0.09541018480465818,0.34839901594443556,0.5220063149724423
114,111015_1,1,2,26,banana_control,banana_foil,banana_control,implicature,unambiguous,distractor,target,L,banana_foil,N,11/10/2015,13:10:00,1.627,4.97,4,F,100,0,0.48673782823690076,0.34839901594443556,0.5220063149724423
115,111015_1,1,2,24,teddybear_control,teddybear_control,teddybear_foil,implicature,unambiguous,target,distractor,L,teddybear_control,Y,11/10/2015,13:10:00,3.027,4.97,4,F,100,1,1.1075720300395817,0.34839901594443556,0.5220063149724423
116,111015_1,1,2,5,car_neg,car_neg,car_pos,negation,negative,target,distractor,L,car_neg,Y,11/10/2015,13:10:00,3.115,4.97,4,F,100,1,1.1362291522394166,0.34839901594443556,0.5220063149724423
117,111015_1,1,2,9,apple_pos,apple_neg,apple_pos,negation,positive,distractor,target,L,apple_neg,N,11/10/2015,13:10:00,0.913,4.97,4,F,100,0,-0.09101939838716855,0.34839901594443556,0.5220063149724423
118,111015_1,1,2,59,cookie_inhib,cookie_pos,cookie_inhib,inhibition,inhib,distractor,target,R,cookie_inhib,Y,11/10/2015,13:10:00,1.622,4.97,4,F,100,1,0.48365995569322123,0.34839901594443556,0.5220063149724423
120,111015_1,1,2,37,bicycle_pos,bicycle_inhib,bicycle_pos,inhibition,control,distractor,target,R,bicycle_pos,Y,11/10/2015,13:10:00,1.251,4.97,4,F,100,1,0.223943231484774,0.34839901594443556,0.5220063149724423
122,111015_1,1,2,12,car_pos,car_pos,car_inhib,inhibition,control,target,distractor,R,car_inhib,N,11/10/2015,13:10:00,1.575,4.97,4,F,100,0,0.4542552722775964,0.34839901594443556,0.5220063149724423
123,111015_1,1,2,34,bicycle_neg,bicycle_pos,bicycle_neg,negation,negative,distractor,target,L,bicycle_pos,N,11/10/2015,13:10:00,0.633000000000001,4.97,4,F,100,0,-0.4572848568379593,0.34839901594443556,0.5220063149724423
124,111015_1,1,2,51,flower_control,flower_foil,flower_control,implicature,unambiguous,distractor,target,R,flower_control,Y,11/10/2015,13:10:00,1.058,4.97,4,F,100,1,0.05638033343610769,0.34839901594443556,0.5220063149724423
125,111015_1,1,2,17,dog_pos,dog_inhib,dog_pos,inhibition,control,distractor,target,R,dog_pos,Y,11/10/2015,13:10:00,1.282,4.97,4,F,100,1,0.24842135849847832,0.34839901594443556,0.5220063149724423
126,111015_1,1,2,22,dog_neg,dog_neg,dog_pos,negation,negative,target,distractor,L,dog_neg,Y,11/10/2015,13:10:00,2.252,4.97,4,F,100,1,0.8118187102774439,0.34839901594443556,0.5220063149724423
127,111015_1,1,2,43,cat_pos,cat_inhib,cat_pos,inhibition,control,distractor,target,L,cat_inhib,N,11/10/2015,13:10:00,1.802,4.97,4,F,100,0,0.5888971591861462,0.34839901594443556,0.5220063149724423
128,111015_1,1,2,12,bird_implic,bird_implic,bird_control,implicature,implicature,target,distractor,R,bird_control,N,11/10/2015,13:10:00,1.525,4.97,4,F,100,0,0.4219944100593749,0.34839901594443556,0.5220063149724423
129,111015_1,1,2,8,lamp_neg,lamp_neg,lamp_pos,negation,negative,target,distractor,R,lamp_pos,N,11/10/2015,13:10:00,0.8189999999999971,4.97,4,F,100,0,-0.19967119512907122,0.34839901594443556,0.5220063149724423
130,111015_1,1,2,54,banana_neg,banana_neg,banana_pos,negation,negative,target,distractor,R,banana_pos,N,11/10/2015,13:10:00,0.7020000000000011,4.97,4,F,100,0,-0.3538218749563244,0.34839901594443556,0.5220063149724423
131,111015_1,1,2,52,apple_neg,apple_neg,apple_pos,negation,negative,target,distractor,R,apple_pos,N,11/10/2015,13:10:00,1.626,4.97,4,F,100,0,0.4861230111256188,0.34839901594443556,0.5220063149724423
132,111015_1,1,2,60,lamp_pos,lamp_pos,lamp_inhib,inhibition,control,target,distractor,L,lamp_pos,Y,11/10/2015,13:10:00,1.609,4.97,4,F,100,1,0.47561286801024616,0.34839901594443556,0.5220063149724423
133,111015_1,1,2,15,flower_implic,flower_implic,flower_control,implicature,implicature,target,distractor,L,flower_implic,Y,11/10/2015,13:10:00,1.06,4.97,4,F,100,1,0.058268908123975824,0.34839901594443556,0.5220063149724423
134,111015_1,1,2,50,car_control,car_control,car_foil,implicature,unambiguous,target,distractor,L,car_control,Y,11/10/2015,13:10:00,0.793,4.97,4,F,100,1,-0.23193205734728903,0.34839901594443556,0.5220063149724423
135,111015_1,1,2,35,flower_pos,flower_neg,flower_pos,negation,positive,distractor,target,R,flower_pos,Y,11/10/2015,13:10:00,1.106,4.97,4,F,100,1,0.10074990310014315,0.34839901594443556,0.5220063149724423
136,111015_1,1,2,51,flower_pos,flower_pos,flower_inhib,inhibition,control,target,distractor,L,flower_pos,Y,11/10/2015,13:10:00,1.942,4.97,4,F,100,1,0.6637183698691331,0.34839901594443556,0.5220063149724423
137,111015_1,1,2,32,cup_neg,cup_pos,cup_neg,negation,negative,distractor,target,L,cup_pos,N,11/10/2015,13:10:00,0.791000000000001,4.97,4,F,100,0,-0.23445731121448188,0.34839901594443556,0.5220063149724423
138,111015_1,1,2,53,cookie_implic,cookie_implic,cookie_control,implicature,implicature,target,distractor,R,cookie_control,N,11/10/2015,13:10:00,0.802,4.97,4,F,100,0,-0.2206466711156225,0.34839901594443556,0.5220063149724423
139,111015_1,1,2,18,dog_pos,dog_pos,dog_inhib,inhibition,control,target,distractor,L,dog_pos,Y,11/10/2015,13:10:00,1.864,4.97,4,F,100,1,0.6227247162633995,0.34839901594443556,0.5220063149724423
140,111015_1,1,2,19,apple_control,apple_foil,apple_control,implicature,unambiguous,distractor,target,L,apple_foil,N,11/10/2015,13:10:00,1.215,4.97,4,F,100,0,0.19474407679251185,0.34839901594443556,0.5220063149724423
141,111015_1,1,2,25,bird_control,bird_foil,bird_control,implicature,unambiguous,distractor,target,R,bird_control,Y,11/10/2015,13:10:00,2.003,4.97,4,F,100,1,0.6946460566836813,0.34839901594443556,0.5220063149724423
142,111015_1,1,2,13,bicycle_control,bicycle_control,bicycle_foil,implicature,unambiguous,target,distractor,L,bicycle_control,Y,11/10/2015,13:10:00,1.456,4.97,4,F,100,1,0.3756929497744942,0.34839901594443556,0.5220063149724423
143,111015_1,1,2,23,cup_control,cup_foil,cup_control,implicature,unambiguous,distractor,target,L,cup_foil,N,11/10/2015,13:10:00,4.029,4.97,4,F,100,0,1.3935182062092102,0.34839901594443556,0.5220063149724423
144,111015_1,1,2,3,teddybear_neg,teddybear_pos,teddybear_neg,negation,negative,distractor,target,R,teddybear_neg,Y,11/10/2015,13:10:00,1.992,4.97,4,F,100,1,0.6891391591624065,0.34839901594443556,0.5220063149724423
145,111015_1,1,2,36,bicycle_pos,bicycle_inhib,bicycle_pos,inhibition,control,distractor,target,R,bicycle_pos,Y,11/10/2015,13:10:00,2.655,4.97,4,F,100,1,0.9764446546939021,0.34839901594443556,0.5220063149724423
146,111015_1,1,2,33,dog_neg,dog_neg,dog_pos,negation,negative,target,distractor,R,dog_pos,N,11/10/2015,13:10:00,1.014,4.97,4,F,100,0,0.013902905168991434,0.34839901594443556,0.5220063149724423
147,111015_1,1,2,36,lamp_neg,lamp_neg,lamp_pos,negation,negative,target,distractor,L,lamp_neg,Y,11/10/2015,13:10:00,1.564,4.97,4,F,100,1,0.4472466421231194,0.34839901594443556,0.5220063149724423
148,111015_1,1,2,52,flower_pos,flower_inhib,flower_pos,inhibition,control,distractor,target,R,flower_pos,Y,11/10/2015,13:10:00,1.975,4.97,4,F,100,1,0.6805683983530852,0.34839901594443556,0.5220063149724423
149,111015_1,1,2,49,flower_pos,flower_pos,flower_inhib,inhibition,control,target,distractor,L,flower_pos,Y,11/10/2015,13:10:00,1.524,4.97,4,F,100,1,0.42133845726445457,0.34839901594443556,0.5220063149724423
150,111015_1,1,2,31,apple_neg,apple_pos,apple_neg,negation,negative,distractor,target,R,apple_neg,Y,11/10/2015,13:10:00,0.7919999999999979,4.97,4,F,100,1,-0.2331938871677138,0.34839901594443556,0.5220063149724423
151,111015_1,1,2,45,cat_pos,cat_inhib,cat_pos,inhibition,control,distractor,target,L,cat_inhib,N,11/10/2015,13:10:00,1.387,4.97,4,F,100,0,0.32714314133269456,0.34839901594443556,0.5220063149724423
152,111015_1,1,2,54,dog_control,dog_foil,dog_control,implicature,unambiguous,distractor,target,L,dog_foil,N,11/10/2015,13:10:00,1.105,4.97,4,F,100,0,0.09984533496971612,0.34839901594443556,0.5220063149724423
153,111015_1,1,2,55,apple_implic,apple_implic,apple_control,implicature,implicature,target,distractor,R,apple_control,N,11/10/2015,13:10:00,0.637,4.97,4,F,100,0,-0.45098562340997367,0.34839901594443556,0.5220063149724423
154,111015_1,1,2,14,dog_implic,dog_implic,dog_control,implicature,implicature,target,distractor,L,dog_implic,Y,11/10/2015,13:10:00,1.602,4.97,4,F,100,1,0.4712528486461675,0.34839901594443556,0.5220063149724423
155,111015_1,1,2,25,teddybear_pos,teddybear_pos,teddybear_inhib,inhibition,control,target,distractor,L,teddybear_pos,Y,11/10/2015,13:10:00,1.432,4.97,4,F,100,1,0.3590720685384538,0.34839901594443556,0.5220063149724423
156,111015_1,1,2,4,cookie_pos,cookie_neg,cookie_pos,negation,positive,distractor,target,L,cookie_neg,N,11/10/2015,13:10:00,1.706,4.97,4,F,100,0,0.5341514490694873,0.34839901594443556,0.5220063149724423
157,111015_1,1,2,11,flower_control,flower_control,flower_foil,implicature,unambiguous,target,distractor,L,flower_control,Y,11/10/2015,13:10:00,2.47,4.97,4,F,100,1,0.9042181506398859,0.34839901594443556,0.5220063149724423
158,111015_1,1,2,16,cat_pos,cat_pos,cat_neg,negation,positive,target,distractor,L,cat_pos,Y,11/10/2015,13:10:00,1.593,4.97,4,F,100,1,0.46561903092791146,0.34839901594443556,0.5220063149724423
159,111015_1,1,2,37,teddybear_pos,teddybear_neg,teddybear_pos,negation,positive,distractor,target,R,teddybear_pos,Y,11/10/2015,13:10:00,1.572,4.97,4,F,100,1,0.45234869400701483,0.34839901594443556,0.5220063149724423
160,111015_1,1,2,55,cookie_pos,cookie_pos,cookie_inhib,inhibition,control,target,distractor,L,cookie_pos,Y,11/10/2015,13:10:00,1.389,4.97,4,F,100,1,0.3285840637722067,0.34839901594443556,0.5220063149724423
161,111015_1,1,2,50,flower_pos,flower_pos,flower_inhib,inhibition,control,target,distractor,L,flower_pos,Y,11/10/2015,13:10:00,1.638,4.97,4,F,100,1,0.4934759854308776,0.34839901594443556,0.5220063149724423
162,111015_1,1,2,47,cat_inhib,cat_inhib,cat_pos,inhibition,inhib,target,distractor,L,cat_inhib,Y,11/10/2015,13:10:00,1.861,4.97,4,F,100,1,0.6211139776601137,0.34839901594443556,0.5220063149724423
163,111015_1,1,2,27,cat_pos,cat_pos,cat_neg,negation,positive,target,distractor,R,cat_neg,N,11/10/2015,13:10:00,1.037,4.97,4,F,100,0,0.036331929247390204,0.34839901594443556,0.5220063149724423
164,111015_1,1,2,29,teddybear_pos,teddybear_neg,teddybear_pos,negation,positive,distractor,target,R,teddybear_pos,Y,11/10/2015,13:10:00,0.992,4.97,4,F,100,1,-0.008032171697264267,0.34839901594443556,0.5220063149724423
165,111015_1,1,2,52,banana_implic,banana_implic,banana_control,implicature,implicature,target,distractor,L,banana_implic,Y,11/10/2015,13:10:00,1.525,4.97,4,F,100,1,0.4219944100593749,0.34839901594443556,0.5220063149724423
166,111015_1,1,2,22,car_control,car_control,car_foil,implicature,unambiguous,target,distractor,R,car_foil,N,11/10/2015,13:10:00,0.802,4.97,4,F,100,0,-0.2206466711156225,0.34839901594443556,0.5220063149724423
167,111015_1,1,2,19,dog_pos,dog_inhib,dog_pos,inhibition,control,distractor,target,R,dog_pos,Y,11/10/2015,13:10:00,1.438,4.97,4,F,100,1,0.3632532592988549,0.34839901594443556,0.5220063149724423
169,111015_1,1,2,10,car_implic,car_implic,car_control,implicature,implicature,target,distractor,L,car_implic,Y,11/10/2015,13:10:00,1.184,4.97,4,F,100,1,0.16889853646181388,0.34839901594443556,0.5220063149724423
170,111015_1,1,2,59,bicycle_control,bicycle_control,bicycle_foil,implicature,unambiguous,target,distractor,R,bicycle_foil,N,11/10/2015,13:10:00,0.931,4.97,4,F,100,0,-0.07149600170506992,0.34839901594443556,0.5220063149724423
171,111015_1,1,2,38,flower_neg,flower_pos,flower_neg,negation,negative,distractor,target,L,flower_pos,N,11/10/2015,13:10:00,0.848,4.97,4,F,100,0,-0.164874643190234,0.34839901594443556,0.5220063149724423
172,111015_1,1,2,56,cookie_pos,cookie_inhib,cookie_pos,inhibition,control,distractor,target,R,cookie_pos,Y,11/10/2015,13:10:00,2.16,4.97,4,F,100,1,0.7701082216960737,0.34839901594443556,0.5220063149724423
173,111015_1,1,2,53,flower_inhib,flower_pos,flower_inhib,inhibition,inhib,distractor,target,R,flower_inhib,Y,11/10/2015,13:10:00,1.623,4.97,4,F,100,1,0.48427628853245414,0.34839901594443556,0.5220063149724423
174,111015_1,1,2,28,bird_neg,bird_pos,bird_neg,negation,negative,distractor,target,L,bird_pos,N,11/10/2015,13:10:00,0.773,4.97,4,F,100,0,-0.25747623039471507,0.34839901594443556,0.5220063149724423
175,111015_1,1,2,46,cat_pos,cat_inhib,cat_pos,inhibition,control,distractor,target,R,cat_pos,Y,11/10/2015,13:10:00,1.312,4.97,4,F,100,1,0.27155269052189734,0.34839901594443556,0.5220063149724423
176,111015_1,1,2,48,flower_pos,flower_inhib,flower_pos,inhibition,control,distractor,target,R,flower_pos,Y,11/10/2015,13:10:00,1.655,4.97,4,F,100,1,0.5038010088290262,0.34839901594443556,0.5220063149724423
177,111015_1,1,2,30,cookie_neg,cookie_neg,cookie_pos,negation,negative,target,distractor,L,cookie_neg,Y,11/10/2015,13:10:00,1.27,4.97,4,F,100,1,0.23901690047049992,0.34839901594443556,0.5220063149724423
178,111015_1,1,2,2,cat_neg,cat_pos,cat_neg,negation,negative,distractor,target,L,cat_pos,N,11/10/2015,13:10:00,1.506,4.97,4,F,100,0,0.40945712937770185,0.34839901594443556,0.5220063149724423
179,111015_1,1,2,9,car_pos,car_pos,car_inhib,inhibition,control,target,distractor,L,car_pos,Y,11/10/2015,13:10:00,2.003,4.97,4,F,100,1,0.6946460566836813,0.34839901594443556,0.5220063149724423
180,111015_1,1,2,49,lamp_implic,lamp_control,lamp_implic,implicature,implicature,distractor,target,R,lamp_implic,Y,11/10/2015,13:10:00,1.024,4.97,4,F,100,1,0.023716526617316065,0.34839901594443556,0.5220063149724423
181,111015_1,1,2,20,dog_inhib,dog_inhib,dog_pos,inhibition,inhib,target,distractor,L,dog_inhib,Y,11/10/2015,13:10:00,2.662,4.97,4,F,100,1,0.9790777199729198,0.34839901594443556,0.5220063149724423
182,111015_1,1,2,22,teddybear_pos,teddybear_pos,teddybear_inhib,inhibition,control,target,distractor,L,teddybear_pos,Y,11/10/2015,13:10:00,1.441,4.97,4,F,100,1,0.3653373170173851,0.34839901594443556,0.5220063149724423
183,111015_1,1,2,24,teddybear_pos,teddybear_inhib,teddybear_pos,inhibition,control,distractor,target,R,teddybear_pos,Y,11/10/2015,13:10:00,1.684,4.97,4,F,100,1,0.521171915820135,0.34839901594443556,0.5220063149724423
184,111015_1,1,2,21,banana_implic,banana_control,banana_implic,implicature,implicature,distractor,target,L,banana_control,N,11/10/2015,13:10:00,1.765,4.97,4,F,100,0,0.56815069038526,0.34839901594443556,0.5220063149724423
185,111015_1,1,2,54,cookie_pos,cookie_pos,cookie_inhib,inhibition,control,target,distractor,L,cookie_pos,Y,11/10/2015,13:10:00,1.644,4.97,4,F,100,1,0.4971322966339881,0.34839901594443556,0.5220063149724423
186,111015_1,1,2,56,bird_control,bird_control,bird_foil,implicature,unambiguous,target,distractor,L,bird_control,Y,11/10/2015,13:10:00,0.395,4.97,4,F,100,1,-0.9288695140810151,0.34839901594443556,0.5220063149724423
187,111015_1,1,2,24,car_pos,car_neg,car_pos,negation,positive,distractor,target,L,car_neg,N,11/10/2015,13:10:00,0.957,4.97,4,F,100,0,-0.04395188752918283,0.34839901594443556,0.5220063149724423
188,111015_1,1,2,57,teddybear_implic,teddybear_implic,teddybear_control,implicature,implicature,target,distractor,R,teddybear_control,N,11/10/2015,13:10:00,0.751,4.97,4,F,100,0,-0.28634962721800233,0.34839901594443556,0.5220063149724423
189,111015_1,1,2,58,cookie_pos,cookie_pos,cookie_inhib,inhibition,control,target,distractor,L,cookie_pos,Y,11/10/2015,13:10:00,1.904,4.97,4,F,100,1,0.6439569363691735,0.34839901594443556,0.5220063149724423
190,111015_1,1,2,23,teddybear_pos,teddybear_pos,teddybear_inhib,inhibition,control,target,distractor,L,teddybear_pos,Y,11/10/2015,13:10:00,1.619,4.97,4,F,100,1,0.4818086746954981,0.34839901594443556,0.5220063149724423
191,111015_1,1,2,58,cup_implic,cup_implic,cup_control,implicature,implicature,target,distractor,L,cup_implic,Y,11/10/2015,13:10:00,1.347,4.97,4,F,100,1,0.2978798974282269,0.34839901594443556,0.5220063149724423
192,111015_1,1,2,60,cat_implic,cat_control,cat_implic,implicature,implicature,distractor,target,L,cat_control,N,11/10/2015,13:10:00,1.361,4.97,4,F,100,0,0.30821972366932904,0.34839901594443556,0.5220063149724423
193,111015_1,1,2,1,dog_pos,dog_neg,dog_pos,negation,positive,distractor,target,R,dog_pos,Y,11/10/2015,13:10:00,1.796,4.97,4,F,100,1,0.5855619698800079,0.34839901594443556,0.5220063149724423
194,111015_1,1,2,23,banana_pos,banana_neg,banana_pos,negation,positive,distractor,target,R,banana_pos,Y,11/10/2015,13:10:00,0.956,4.97,4,F,100,1,-0.044997365930735805,0.34839901594443556,0.5220063149724423
195,111015_1,1,2,57,cookie_pos,cookie_pos,cookie_inhib,inhibition,control,target,distractor,L,cookie_pos,Y,11/10/2015,13:10:00,1.652,4.97,4,F,100,1,0.5019866750987863,0.34839901594443556,0.5220063149724423
196,111015_1,1,2,25,car_neg,car_neg,car_pos,negation,negative,target,distractor,R,car_pos,N,11/10/2015,13:10:00,0.982,4.97,4,F,100,0,-0.01816397062767118,0.34839901594443556,0.5220063149724423
197,111015_1,1,2,20,lamp_implic,lamp_implic,lamp_control,implicature,implicature,target,distractor,R,lamp_control,N,11/10/2015,13:10:00,1.282,4.97,4,F,100,0,0.24842135849847832,0.34839901594443556,0.5220063149724423
198,111015_1,1,2,26,banana_pos,banana_neg,banana_pos,negation,positive,distractor,target,L,banana_neg,N,11/10/2015,13:10:00,2.413,4.97,4,F,100,0,0.8808707866428946,0.34839901594443556,0.5220063149724423
199,111015_1,1,2,21,teddybear_pos,teddybear_inhib,teddybear_pos,inhibition,control,distractor,target,R,teddybear_pos,Y,11/10/2015,13:10:00,1.684,4.97,4,F,100,1,0.521171915820135,0.34839901594443556,0.5220063149724423
200,111015_4,2,2,32,flower_implic,flower_implic,flower_control,implicature,implicature,target,distractor,L,flower_implic,Y,11/10/2015,13:30:00,1.785,5.03,5,M,100,1,0.5794184152316023,0.34839901594443556,0.5220063149724423
201,111015_4,2,2,18,lamp_pos,lamp_pos,lamp_inhib,inhibition,control,target,distractor,L,lamp_pos,Y,11/10/2015,13:30:00,1.082,5.03,5,M,100,1,0.07881118042428985,0.34839901594443556,0.5220063149724423
202,111015_4,2,2,31,teddybear_control,teddybear_control,teddybear_foil,implicature,unambiguous,target,distractor,L,teddybear_control,Y,11/10/2015,13:30:00,2.449,5.03,5,M,100,1,0.8956797779700306,0.34839901594443556,0.5220063149724423
203,111015_4,2,2,30,bicycle_control,bicycle_foil,bicycle_control,implicature,unambiguous,distractor,target,R,bicycle_control,Y,11/10/2015,13:30:00,1.32,5.03,5,M,100,1,0.27763173659827955,0.34839901594443556,0.5220063149724423
204,111015_4,2,2,7,banana_pos,banana_neg,banana_pos,negation,positive,distractor,target,R,banana_pos,Y,11/10/2015,13:30:00,1.431,5.03,5,M,100,1,0.3583735005743139,0.34839901594443556,0.5220063149724423
205,111015_4,2,2,27,cookie_control,cookie_control,cookie_foil,implicature,unambiguous,target,distractor,L,cookie_control,Y,11/10/2015,13:30:00,1.536,5.03,5,M,100,1,0.42918163472548043,0.34839901594443556,0.5220063149724423
206,111015_4,2,2,63,dog_pos,dog_pos,dog_inhib,inhibition,control,target,distractor,L,dog_pos,Y,11/10/2015,13:30:00,1.081,5.03,5,M,100,1,0.0778865386570712,0.34839901594443556,0.5220063149724423
207,111015_4,2,2,29,cup_implic,cup_control,cup_implic,implicature,implicature,distractor,target,R,cup_implic,Y,11/10/2015,13:30:00,2.319,5.03,5,M,100,1,0.8411360582733945,0.34839901594443556,0.5220063149724423
208,111015_4,2,2,26,lamp_control,lamp_control,lamp_foil,implicature,unambiguous,target,distractor,L,lamp_control,Y,11/10/2015,13:30:00,1.539,5.03,5,M,100,1,0.43113285485674213,0.34839901594443556,0.5220063149724423
209,111015_4,2,2,65,dog_pos,dog_pos,dog_inhib,inhibition,control,target,distractor,L,dog_pos,Y,11/10/2015,13:30:00,1.216,5.03,5,M,100,1,0.19556678354397525,0.34839901594443556,0.5220063149724423
210,111015_4,2,2,57,teddybear_pos,teddybear_inhib,teddybear_pos,inhibition,control,distractor,target,R,teddybear_pos,Y,11/10/2015,13:30:00,0.822,5.03,5,M,100,1,-0.1960148839259572,0.34839901594443556,0.5220063149724423
211,111015_4,2,2,33,cat_implic,cat_implic,cat_control,implicature,implicature,target,distractor,L,cat_implic,Y,11/10/2015,13:30:00,1.637,5.03,5,M,100,1,0.49286529838899784,0.34839901594443556,0.5220063149724423
212,111015_4,2,2,40,teddybear_pos,teddybear_neg,teddybear_pos,negation,positive,distractor,target,R,teddybear_pos,Y,11/10/2015,13:30:00,0.824,5.03,5,M,100,1,-0.1935847490726654,0.34839901594443556,0.5220063149724423
213,111015_4,2,2,76,apple_pos,apple_inhib,apple_pos,inhibition,control,distractor,target,R,apple_pos,Y,11/10/2015,13:30:00,1.57,5.03,5,M,100,1,0.45107561936021673,0.34839901594443556,0.5220063149724423
214,111015_4,2,2,41,cup_neg,cup_pos,cup_neg,negation,negative,distractor,target,R,cup_neg,Y,11/10/2015,13:30:00,0.974000000000001,5.03,5,M,100,1,-0.02634397533960095,0.34839901594443556,0.5220063149724423
215,111015_4,2,2,75,apple_pos,apple_pos,apple_inhib,inhibition,control,target,distractor,L,apple_pos,Y,11/10/2015,13:30:00,0.707,5.03,5,M,100,1,-0.34672461308556435,0.34839901594443556,0.5220063149724423
216,111015_4,2,2,25,dog_implic,dog_control,dog_implic,implicature,implicature,distractor,target,R,dog_implic,Y,11/10/2015,13:30:00,1.538,5.03,5,M,100,1,0.43048287108345223,0.34839901594443556,0.5220063149724423
217,111015_4,2,2,6,bird_neg,bird_neg,bird_pos,negation,negative,target,distractor,L,bird_neg,Y,11/10/2015,13:30:00,1.566,5.03,5,M,100,1,0.4485245975686114,0.34839901594443556,0.5220063149724423
218,111015_4,2,2,17,lamp_pos,lamp_pos,lamp_inhib,inhibition,control,target,distractor,L,lamp_pos,Y,11/10/2015,13:30:00,1.273,5.03,5,M,100,1,0.2413763195752694,0.34839901594443556,0.5220063149724423
219,111015_4,2,2,59,teddybear_inhib,teddybear_pos,teddybear_inhib,inhibition,inhib,distractor,target,L,teddybear_pos,N,11/10/2015,13:30:00,0.699,5.03,5,M,100,0,-0.3581045367483269,0.34839901594443556,0.5220063149724423
220,111015_4,2,2,56,teddybear_pos,teddybear_pos,teddybear_inhib,inhibition,control,target,distractor,L,teddybear_pos,Y,11/10/2015,13:30:00,1.146,5.03,5,M,100,1,0.13627761829254775,0.34839901594443556,0.5220063149724423
221,111015_4,2,2,74,apple_pos,apple_pos,apple_inhib,inhibition,control,target,distractor,L,apple_pos,Y,11/10/2015,13:30:00,1.243,5.03,5,M,100,1,0.21752781252857414,0.34839901594443556,0.5220063149724423
222,111015_4,2,2,38,banana_neg,banana_pos,banana_neg,negation,negative,distractor,target,R,banana_neg,Y,11/10/2015,13:30:00,1.912,5.03,5,M,100,1,0.6481498146292095,0.34839901594443556,0.5220063149724423
223,111015_4,2,2,55,teddybear_pos,teddybear_pos,teddybear_inhib,inhibition,control,target,distractor,L,teddybear_pos,Y,11/10/2015,13:30:00,1.314,5.03,5,M,100,1,0.2730759200624188,0.34839901594443556,0.5220063149724423
224,111015_4,2,2,34,apple_implic,apple_control,apple_implic,implicature,implicature,distractor,target,R,apple_implic,Y,11/10/2015,13:30:00,1.372,5.03,5,M,100,1,0.31626952930369356,0.34839901594443556,0.5220063149724423
225,111015_4,2,2,58,teddybear_pos,teddybear_inhib,teddybear_pos,inhibition,control,distractor,target,R,teddybear_pos,Y,11/10/2015,13:30:00,1.073,5.03,5,M,100,1,0.07045846364856137,0.34839901594443556,0.5220063149724423
226,111015_4,2,2,16,lamp_pos,lamp_pos,lamp_inhib,inhibition,control,target,distractor,L,lamp_pos,Y,11/10/2015,13:30:00,2.704,5.03,5,M,100,1,0.9947321581807177,0.34839901594443556,0.5220063149724423
227,111015_4,2,2,37,car_neg,car_pos,car_neg,negation,negative,distractor,target,R,car_neg,Y,11/10/2015,13:30:00,1.129,5.03,5,M,100,1,0.12133228516752496,0.34839901594443556,0.5220063149724423
228,111015_4,2,2,24,cookie_control,cookie_control,cookie_foil,implicature,unambiguous,target,distractor,L,cookie_control,Y,11/10/2015,13:30:00,1.066,5.03,5,M,100,1,0.06391332574365285,0.34839901594443556,0.5220063149724423
229,111015_4,2,2,15,lamp_pos,lamp_pos,lamp_inhib,inhibition,control,target,distractor,L,lamp_pos,Y,11/10/2015,13:30:00,1.915,5.03,5,M,100,1,0.6497176226326093,0.34839901594443556,0.5220063149724423
230,111015_4,2,2,35,banana_neg,banana_pos,banana_neg,negation,negative,distractor,target,R,banana_neg,Y,11/10/2015,13:30:00,1.092,5.03,5,M,100,1,0.08801087732271337,0.34839901594443556,0.5220063149724423
231,111015_4,2,2,73,car_inhib,car_pos,car_inhib,inhibition,inhib,distractor,target,R,car_inhib,Y,11/10/2015,13:30:00,1.187,5.03,5,M,100,1,0.17142911562753102,0.34839901594443556,0.5220063149724423
232,111015_4,2,2,53,lamp_pos,lamp_pos,lamp_neg,negation,positive,target,distractor,L,lamp_pos,Y,11/10/2015,13:30:00,0.946,5.03,5,M,100,1,-0.05551270993025883,0.34839901594443556,0.5220063149724423
233,111015_4,2,2,77,apple_pos,apple_inhib,apple_pos,inhibition,control,distractor,target,R,apple_pos,Y,11/10/2015,13:30:00,1.328,5.03,5,M,100,1,0.28367405105424215,0.34839901594443556,0.5220063149724423
234,111015_4,2,2,66,dog_inhib,dog_inhib,dog_pos,inhibition,inhib,target,distractor,L,dog_inhib,Y,11/10/2015,13:30:00,1.586,5.03,5,M,100,1,0.4612151232126563,0.34839901594443556,0.5220063149724423
235,111015_4,2,2,36,car_pos,car_neg,car_pos,negation,positive,distractor,target,R,car_pos,Y,11/10/2015,13:30:00,1.392,5.03,5,M,100,1,0.3307415619122278,0.34839901594443556,0.5220063149724423
236,111015_4,2,2,78,apple_pos,apple_inhib,apple_pos,inhibition,control,distractor,target,R,apple_pos,Y,11/10/2015,13:30:00,0.836,5.03,5,M,100,1,-0.17912666589743548,0.34839901594443556,0.5220063149724423
237,111015_4,2,2,19,lamp_pos,lamp_pos,lamp_inhib,inhibition,control,target,distractor,L,lamp_pos,Y,11/10/2015,13:30:00,0.704,5.03,5,M,100,1,-0.3509769228240947,0.34839901594443556,0.5220063149724423
238,111015_4,2,2,23,bird_control,bird_foil,bird_control,implicature,unambiguous,distractor,target,R,bird_control,Y,11/10/2015,13:30:00,1.426,5.03,5,M,100,1,0.35487332199210414,0.34839901594443556,0.5220063149724423
239,111015_4,2,2,71,car_pos,car_inhib,car_pos,inhibition,control,distractor,target,R,car_pos,Y,11/10/2015,13:30:00,1.547,5.03,5,M,100,1,0.43631757159092904,0.34839901594443556,0.5220063149724423
240,111015_4,2,2,9,bird_pos,bird_inhib,bird_pos,inhibition,control,distractor,target,R,bird_pos,Y,11/10/2015,13:30:00,1.511,5.03,5,M,100,1,0.41277168329060243,0.34839901594443556,0.5220063149724423
241,111015_4,2,2,4,bicycle_neg,bicycle_pos,bicycle_neg,negation,negative,distractor,target,L,bicycle_pos,N,11/10/2015,13:30:00,1.735,5.03,5,M,100,0,0.5510074133988225,0.34839901594443556,0.5220063149724423
242,111015_4,2,2,53,banana_inhib,banana_pos,banana_inhib,inhibition,inhib,distractor,target,R,banana_inhib,Y,11/10/2015,13:30:00,1.543,5.03,5,M,100,1,0.4337285733810237,0.34839901594443556,0.5220063149724423
243,111015_4,2,2,54,bicycle_pos,bicycle_pos,bicycle_neg,negation,positive,target,distractor,L,bicycle_pos,Y,11/10/2015,13:30:00,1.035,5.03,5,M,100,1,0.03440142671733232,0.34839901594443556,0.5220063149724423
244,111015_4,2,2,55,cup_neg,cup_pos,cup_neg,negation,negative,distractor,target,R,cup_neg,Y,11/10/2015,13:30:00,0.771000000000001,5.03,5,M,100,1,-0.2600669054188062,0.34839901594443556,0.5220063149724423
245,111015_4,2,2,54,teddybear_pos,teddybear_inhib,teddybear_pos,inhibition,control,distractor,target,R,teddybear_pos,Y,11/10/2015,13:30:00,1.109,5.03,5,M,100,1,0.10345870836822997,0.34839901594443556,0.5220063149724423
246,111015_4,2,2,60,dog_pos,dog_pos,dog_inhib,inhibition,control,target,distractor,L,dog_pos,Y,11/10/2015,13:30:00,2.399,5.03,5,M,100,1,0.8750519838575576,0.34839901594443556,0.5220063149724423
247,111015_4,2,2,42,bird_pos,bird_pos,bird_neg,negation,positive,target,distractor,L,bird_pos,Y,11/10/2015,13:30:00,1.928,5.03,5,M,100,1,0.6564831961883538,0.34839901594443556,0.5220063149724423
248,111015_4,2,2,28,car_control,car_control,car_foil,implicature,unambiguous,target,distractor,R,car_foil,N,11/10/2015,13:30:00,1.954,5.03,5,M,100,0,0.669878553620591,0.34839901594443556,0.5220063149724423
249,111015_4,2,2,33,bird_neg,bird_pos,bird_neg,negation,negative,distractor,target,R,bird_neg,Y,11/10/2015,13:30:00,1.321,5.03,5,M,100,1,0.27838902554018824,0.34839901594443556,0.5220063149724423
250,111015_4,2,2,14,lamp_pos,lamp_inhib,lamp_pos,inhibition,control,distractor,target,R,lamp_pos,Y,11/10/2015,13:30:00,1.775,5.03,5,M,100,1,0.5738004229273791,0.34839901594443556,0.5220063149724423
251,111015_4,2,2,35,banana_control,banana_control,banana_foil,implicature,unambiguous,target,distractor,L,banana_control,Y,11/10/2015,13:30:00,1.426,5.03,5,M,100,1,0.35487332199210414,0.34839901594443556,0.5220063149724423
252,111015_4,2,2,12,bird_pos,bird_inhib,bird_pos,inhibition,control,distractor,target,R,bird_pos,Y,11/10/2015,13:30:00,1.475,5.03,5,M,100,1,0.38865798979178323,0.34839901594443556,0.5220063149724423
253,111015_4,2,2,38,cup_implic,cup_implic,cup_control,implicature,implicature,target,distractor,L,cup_implic,Y,11/10/2015,13:30:00,2.337,5.03,5,M,100,1,0.848868055556721,0.34839901594443556,0.5220063149724423
254,111015_4,2,2,39,car_implic,car_control,car_implic,implicature,implicature,distractor,target,R,car_implic,Y,11/10/2015,13:30:00,1.875,5.03,5,M,100,1,0.6286086594223741,0.34839901594443556,0.5220063149724423
255,111015_4,2,2,52,apple_pos,apple_pos,apple_neg,negation,positive,target,distractor,L,apple_pos,Y,11/10/2015,13:30:00,1.752,5.03,5,M,100,1,0.5607579925141997,0.34839901594443556,0.5220063149724423
256,111015_4,2,2,52,banana_pos,banana_inhib,banana_pos,inhibition,control,distractor,target,R,banana_pos,Y,11/10/2015,13:30:00,0.634,5.03,5,M,100,1,-0.4557063245449111,0.34839901594443556,0.5220063149724423
257,111015_4,2,2,34,cat_pos,cat_pos,cat_neg,negation,positive,target,distractor,L,cat_pos,Y,11/10/2015,13:30:00,2.832,5.03,5,M,100,1,1.0409831758314734,0.34839901594443556,0.5220063149724423
258,111015_4,2,2,41,lamp_control,lamp_control,lamp_foil,implicature,unambiguous,target,distractor,L,lamp_control,Y,11/10/2015,13:30:00,2.451,5.03,5,M,100,1,0.8964961045459755,0.34839901594443556,0.5220063149724423
259,111015_4,2,2,42,apple_implic,apple_implic,apple_control,implicature,implicature,target,distractor,L,apple_implic,Y,11/10/2015,13:30:00,1.554,5.03,5,M,100,1,0.4408322519454557,0.34839901594443556,0.5220063149724423
260,111015_4,2,2,56,car_pos,car_neg,car_pos,negation,positive,distractor,target,R,car_pos,Y,11/10/2015,13:30:00,2.342,5.03,5,M,100,1,0.8510052651755257,0.34839901594443556,0.5220063149724423
261,111015_4,2,2,20,lamp_inhib,lamp_inhib,lamp_pos,inhibition,inhib,target,distractor,L,lamp_inhib,Y,11/10/2015,13:30:00,1.906,5.03,5,M,100,1,0.6450068052320104,0.34839901594443556,0.5220063149724423
262,111015_4,2,2,5,lamp_neg,lamp_neg,lamp_pos,negation,negative,target,distractor,L,lamp_neg,Y,11/10/2015,13:30:00,1.512,5.03,5,M,100,1,0.4134332777573413,0.34839901594443556,0.5220063149724423
263,111015_4,2,2,69,car_pos,car_pos,car_inhib,inhibition,control,target,distractor,L,car_pos,Y,11/10/2015,13:30:00,0.903,5.03,5,M,100,1,-0.10203272556515161,0.34839901594443556,0.5220063149724423
264,111015_4,2,2,22,banana_control,banana_foil,banana_control,implicature,unambiguous,distractor,target,R,banana_control,Y,11/10/2015,13:30:00,1.793,5.03,5,M,100,1,0.5838901946229957,0.34839901594443556,0.5220063149724423
265,111015_4,2,2,13,bird_inhib,bird_inhib,bird_pos,inhibition,inhib,target,distractor,L,bird_inhib,Y,11/10/2015,13:30:00,1.412,5.03,5,M,100,1,0.3450071390710503,0.34839901594443556,0.5220063149724423
266,111015_4,2,2,10,bird_pos,bird_pos,bird_inhib,inhibition,control,target,distractor,L,bird_pos,Y,11/10/2015,13:30:00,1.177,5.03,5,M,100,1,0.16296882827813972,0.34839901594443556,0.5220063149724423
267,111015_4,2,2,8,bird_pos,bird_pos,bird_inhib,inhibition,control,target,distractor,L,bird_pos,Y,11/10/2015,13:30:00,1.32,5.03,5,M,100,1,0.27763173659827955,0.34839901594443556,0.5220063149724423
268,111015_4,2,2,32,teddybear_pos,teddybear_neg,teddybear_pos,negation,positive,distractor,target,R,teddybear_pos,Y,11/10/2015,13:30:00,1.148,5.03,5,M,100,1,0.1380212978973746,0.34839901594443556,0.5220063149724423
269,111015_4,2,2,51,bird_neg,bird_neg,bird_pos,negation,negative,target,distractor,L,bird_neg,Y,11/10/2015,13:30:00,1.21,5.03,5,M,100,1,0.1906203596086497,0.34839901594443556,0.5220063149724423
270,111015_4,2,2,40,banana_control,banana_control,banana_foil,implicature,unambiguous,target,distractor,L,banana_control,Y,11/10/2015,13:30:00,1.432,5.03,5,M,100,1,0.3590720685384538,0.34839901594443556,0.5220063149724423
271,111015_4,2,2,26,cookie_inhib,cookie_inhib,cookie_pos,inhibition,inhib,target,distractor,L,cookie_inhib,Y,11/10/2015,13:30:00,1.643,5.03,5,M,100,1,0.49652383905513103,0.34839901594443556,0.5220063149724423
272,111015_4,2,2,27,flower_pos,flower_inhib,flower_pos,inhibition,control,distractor,target,R,flower_pos,Y,11/10/2015,13:30:00,1.256,5.03,5,M,100,1,0.22793206804600694,0.34839901594443556,0.5220063149724423
273,111015_4,2,2,15,banana_neg,banana_neg,banana_pos,negation,negative,target,distractor,L,banana_neg,Y,11/10/2015,13:30:00,1.567,5.03,5,M,100,1,0.44916296337388373,0.34839901594443556,0.5220063149724423
274,111015_4,2,2,61,dog_pos,dog_inhib,dog_pos,inhibition,control,distractor,target,R,dog_pos,Y,11/10/2015,13:30:00,0.965,5.03,5,M,100,1,-0.03562717764315116,0.34839901594443556,0.5220063149724423
275,111015_4,2,2,3,cat_neg,cat_neg,cat_pos,negation,negative,target,distractor,R,cat_pos,N,11/10/2015,13:30:00,1.552,5.03,5,M,100,0,0.43954442176102704,0.34839901594443556,0.5220063149724423
276,111015_4,2,2,20,car_control,car_control,car_foil,implicature,unambiguous,target,distractor,L,car_control,Y,11/10/2015,13:30:00,1.354,5.03,5,M,100,1,0.3030631744900833,0.34839901594443556,0.5220063149724423
277,111015_4,2,2,67,car_pos,car_pos,car_inhib,inhibition,control,target,distractor,L,car_pos,Y,11/10/2015,13:30:00,1.262,5.03,5,M,100,1,0.23269776411902143,0.34839901594443556,0.5220063149724423
278,111015_4,2,2,68,car_pos,car_pos,car_inhib,inhibition,control,target,distractor,L,car_pos,Y,11/10/2015,13:30:00,0.93,5.03,5,M,100,1,-0.07257069283483537,0.34839901594443556,0.5220063149724423
279,111015_4,2,2,72,car_pos,car_pos,car_inhib,inhibition,control,target,distractor,L,car_pos,Y,11/10/2015,13:30:00,1.034,5.03,5,M,100,1,0.03343477608623742,0.34839901594443556,0.5220063149724423
280,111015_4,2,2,49,banana_pos,banana_neg,banana_pos,negation,positive,distractor,target,L,banana_neg,N,11/10/2015,13:30:00,1.236,5.03,5,M,100,0,0.211880359035499,0.34839901594443556,0.5220063149724423
281,111015_4,2,2,50,flower_neg,flower_neg,flower_pos,negation,negative,target,distractor,L,flower_neg,Y,11/10/2015,13:30:00,1.72,5.03,5,M,100,1,0.5423242908253617,0.34839901594443556,0.5220063149724423
282,111015_4,2,2,49,banana_pos,banana_inhib,banana_pos,inhibition,control,distractor,target,L,banana_inhib,N,11/10/2015,13:30:00,0.874,5.03,5,M,100,0,-0.1346749033266016,0.34839901594443556,0.5220063149724423
283,111015_4,2,2,14,cookie_pos,cookie_pos,cookie_neg,negation,positive,target,distractor,L,cookie_pos,Y,11/10/2015,13:30:00,1.917,5.03,5,M,100,1,0.6507614640635074,0.34839901594443556,0.5220063149724423
284,111015_4,2,2,11,teddybear_pos,teddybear_neg,teddybear_pos,negation,positive,distractor,target,R,teddybear_pos,Y,11/10/2015,13:30:00,0.841,5.03,5,M,100,1,-0.17316361900918903,0.34839901594443556,0.5220063149724423
285,111015_4,2,2,25,cookie_pos,cookie_inhib,cookie_pos,inhibition,control,distractor,target,R,cookie_pos,Y,11/10/2015,13:30:00,1.466,5.03,5,M,100,1,0.38253760346445975,0.34839901594443556,0.5220063149724423
286,111015_4,2,2,5,bird_implic,bird_control,bird_implic,implicature,implicature,distractor,target,R,bird_implic,Y,11/10/2015,13:30:00,1.315,5.03,5,M,100,1,0.27383666562972786,0.34839901594443556,0.5220063149724423
287,111015_4,2,2,43,cookie_control,cookie_foil,cookie_control,implicature,unambiguous,distractor,target,R,cookie_control,Y,11/10/2015,13:30:00,1.341,5.03,5,M,100,1,0.29341560429954144,0.34839901594443556,0.5220063149724423
288,111015_4,2,2,43,apple_neg,apple_pos,apple_neg,negation,negative,distractor,target,L,apple_pos,N,11/10/2015,13:30:00,2.007,5.03,5,M,100,0,0.6966410698142012,0.34839901594443556,0.5220063149724423
289,111015_4,2,2,44,lamp_neg,lamp_neg,lamp_pos,negation,negative,target,distractor,R,lamp_pos,N,11/10/2015,13:30:00,1.32,5.03,5,M,100,0,0.27763173659827955,0.34839901594443556,0.5220063149724423
290,111015_4,2,2,15,cup_control,cup_foil,cup_control,implicature,unambiguous,distractor,target,R,cup_control,Y,11/10/2015,13:30:00,1.423,5.03,5,M,100,1,0.35276731910771536,0.34839901594443556,0.5220063149724423
291,111015_4,2,2,2,flower_pos,flower_neg,flower_pos,negation,positive,distractor,target,R,flower_pos,Y,11/10/2015,13:30:00,0.946,5.03,5,M,100,1,-0.05551270993025883,0.34839901594443556,0.5220063149724423
292,111015_4,2,2,11,bird_pos,bird_pos,bird_inhib,inhibition,control,target,distractor,L,bird_pos,Y,11/10/2015,13:30:00,1.103,5.03,5,M,100,1,0.0980337402713654,0.34839901594443556,0.5220063149724423
293,111015_4,2,2,7,bird_pos,bird_pos,bird_inhib,inhibition,control,target,distractor,L,bird_pos,Y,11/10/2015,13:30:00,1.612,5.03,5,M,100,1,0.4774756440844366,0.34839901594443556,0.5220063149724423
294,111015_4,2,2,6,cup_inhib,cup_pos,cup_inhib,inhibition,inhib,distractor,target,L,cup_pos,N,11/10/2015,13:30:00,1.193,5.03,5,M,100,0,0.1764711431157791,0.34839901594443556,0.5220063149724423
295,111015_4,2,2,37,teddybear_control,teddybear_foil,teddybear_control,implicature,unambiguous,distractor,target,R,teddybear_control,Y,11/10/2015,13:30:00,2.633,5.03,5,M,100,1,0.9681238805141723,0.34839901594443556,0.5220063149724423
296,111015_4,2,2,13,apple_neg,apple_neg,apple_pos,negation,negative,target,distractor,L,apple_neg,Y,11/10/2015,13:30:00,1.513,5.03,5,M,100,1,0.4140944348062188,0.34839901594443556,0.5220063149724423
297,111015_4,2,2,10,car_pos,car_pos,car_neg,negation,positive,target,distractor,L,car_pos,Y,11/10/2015,13:30:00,1.097,5.03,5,M,100,1,0.09257918129309317,0.34839901594443556,0.5220063149724423
298,111015_4,2,2,24,cookie_pos,cookie_pos,cookie_inhib,inhibition,control,target,distractor,L,cookie_pos,Y,11/10/2015,13:30:00,1.017,5.03,5,M,100,1,0.016857117066422806,0.34839901594443556,0.5220063149724423
299,111015_4,2,2,47,dog_implic,dog_control,dog_implic,implicature,implicature,distractor,target,R,dog_implic,Y,11/10/2015,13:30:00,1.224,5.03,5,M,100,1,0.20212418409013433,0.34839901594443556,0.5220063149724423
300,111015_4,2,2,6,apple_control,apple_control,apple_foil,implicature,unambiguous,target,distractor,L,apple_control,Y,11/10/2015,13:30:00,1.608,5.03,5,M,100,1,0.47499117075677466,0.34839901594443556,0.5220063149724423
301,111015_4,2,2,39,dog_pos,dog_pos,dog_neg,negation,positive,target,distractor,L,dog_pos,Y,11/10/2015,13:30:00,1.407,5.03,5,M,100,1,0.34145977813225203,0.34839901594443556,0.5220063149724423
302,111015_4,2,2,62,dog_pos,dog_inhib,dog_pos,inhibition,control,distractor,target,R,dog_pos,Y,11/10/2015,13:30:00,0.78,5.03,5,M,100,1,-0.2484613592984996,0.34839901594443556,0.5220063149724423
303,111015_4,2,2,64,dog_pos,dog_pos,dog_inhib,inhibition,control,target,distractor,L,dog_pos,Y,11/10/2015,13:30:00,0.876,5.03,5,M,100,1,-0.13238918804574562,0.34839901594443556,0.5220063149724423
304,111015_4,2,2,21,cookie_pos,cookie_inhib,cookie_pos,inhibition,control,distractor,target,R,cookie_pos,Y,11/10/2015,13:30:00,1.501,5.03,5,M,100,1,0.40613155265132483,0.34839901594443556,0.5220063149724423
305,111015_4,2,2,46,cookie_neg,cookie_pos,cookie_neg,negation,negative,distractor,target,R,cookie_neg,Y,11/10/2015,13:30:00,1.246,5.03,5,M,100,1,0.2199384203652614,0.34839901594443556,0.5220063149724423
306,111015_4,2,2,70,car_pos,car_pos,car_inhib,inhibition,control,target,distractor,L,car_pos,Y,11/10/2015,13:30:00,0.968,5.03,5,M,100,1,-0.03252319170556006,0.34839901594443556,0.5220063149724423
307,111015_4,2,2,36,bird_control,bird_foil,bird_control,implicature,unambiguous,distractor,target,R,bird_control,Y,11/10/2015,13:30:00,1.107,5.03,5,M,100,1,0.10165365372649982,0.34839901594443556,0.5220063149724423
308,111015_4,2,2,51,banana_pos,banana_pos,banana_inhib,inhibition,control,target,distractor,L,banana_pos,Y,11/10/2015,13:30:00,1.171,5.03,5,M,100,1,0.15785808461558032,0.34839901594443556,0.5220063149724423
309,111015_4,2,2,31,cookie_pos,cookie_neg,cookie_pos,negation,positive,distractor,target,R,cookie_pos,Y,11/10/2015,13:30:00,1.009,5.03,5,M,100,1,0.008959741371471801,0.34839901594443556,0.5220063149724423
310,111015_4,2,2,48,banana_pos,banana_inhib,banana_pos,inhibition,control,distractor,target,R,banana_pos,Y,11/10/2015,13:30:00,0.951,5.03,5,M,100,1,-0.05024121643674679,0.34839901594443556,0.5220063149724423
311,111015_4,2,2,23,cookie_pos,cookie_pos,cookie_inhib,inhibition,control,target,distractor,R,cookie_inhib,N,11/10/2015,13:30:00,0.818,5.03,5,M,100,0,-0.20089294237939007,0.34839901594443556,0.5220063149724423
312,111015_4,2,2,24,teddybear_pos,teddybear_pos,teddybear_neg,negation,positive,target,distractor,L,teddybear_pos,Y,11/10/2015,13:30:00,1.723,5.03,5,M,100,1,0.5440669575457926,0.34839901594443556,0.5220063149724423
313,111015_4,2,2,50,flower_control,flower_foil,flower_control,implicature,unambiguous,distractor,target,R,flower_control,Y,11/10/2015,13:30:00,1.876,5.03,5,M,100,1,0.6291418505840328,0.34839901594443556,0.5220063149724423
314,111015_4,2,2,16,dog_neg,dog_neg,dog_pos,negation,negative,target,distractor,L,dog_neg,Y,11/10/2015,13:30:00,1.872,5.03,5,M,100,1,0.6270073780554004,0.34839901594443556,0.5220063149724423
315,111015_4,2,2,59,cat_pos,cat_pos,cat_neg,negation,positive,target,distractor,L,cat_pos,Y,11/10/2015,13:30:00,0.817,5.03,5,M,100,1,-0.20211618412213422,0.34839901594443556,0.5220063149724423
316,111015_4,2,2,21,lamp_implic,lamp_implic,lamp_control,implicature,implicature,target,distractor,L,lamp_implic,Y,11/10/2015,13:30:00,2.044,5.03,5,M,100,1,0.714908672341458,0.34839901594443556,0.5220063149724423
317,111015_4,2,2,14,dog_control,dog_foil,dog_control,implicature,unambiguous,distractor,target,R,dog_control,Y,11/10/2015,13:30:00,2.156,5.03,5,M,100,1,0.7682546530467508,0.34839901594443556,0.5220063149724423
318,111015_4,2,2,3,cup_pos,cup_pos,cup_inhib,inhibition,control,target,distractor,L,cup_pos,Y,11/10/2015,13:30:00,0.992,5.03,5,M,100,1,-0.008032171697264267,0.34839901594443556,0.5220063149724423
319,111015_4,2,2,1,cookie_pos,cookie_neg,cookie_pos,negation,positive,distractor,target,R,cookie_pos,Y,11/10/2015,13:30:00,1.605,5.03,5,M,100,1,0.4731237565819792,0.34839901594443556,0.5220063149724423
320,111015_4,2,2,5,cup_pos,cup_inhib,cup_pos,inhibition,control,distractor,target,L,cup_inhib,N,11/10/2015,13:30:00,1.591,5.03,5,M,100,0,0.4643627493556498,0.34839901594443556,0.5220063149724423
321,111015_4,2,2,48,flower_pos,flower_pos,flower_neg,negation,positive,target,distractor,L,flower_pos,Y,11/10/2015,13:30:00,1.447,5.03,5,M,100,1,0.36949244764934686,0.34839901594443556,0.5220063149724423
322,111015_4,2,2,12,cup_neg,cup_pos,cup_neg,negation,negative,distractor,target,R,cup_neg,Y,11/10/2015,13:30:00,1.501,5.03,5,M,100,1,0.40613155265132483,0.34839901594443556,0.5220063149724423
323,111015_4,2,2,9,apple_pos,apple_neg,apple_pos,negation,positive,distractor,target,R,apple_pos,Y,11/10/2015,13:30:00,1.489,5.03,5,M,100,1,0.398104753701872,0.34839901594443556,0.5220063149724423
324,111015_4,2,2,49,bird_implic,bird_implic,bird_control,implicature,implicature,target,distractor,L,bird_implic,Y,11/10/2015,13:30:00,2.018,5.03,5,M,100,1,0.7021069219314171,0.34839901594443556,0.5220063149724423
325,111015_4,2,2,22,cat_neg,cat_neg,cat_pos,negation,negative,target,distractor,L,cat_neg,Y,11/10/2015,13:30:00,2.306,5.03,5,M,100,1,0.8355144218468673,0.34839901594443556,0.5220063149724423
326,111015_4,2,2,18,bicycle_neg,bicycle_pos,bicycle_neg,negation,negative,distractor,target,R,bicycle_neg,Y,11/10/2015,13:30:00,1.901,5.03,5,M,100,1,0.6423800635062922,0.34839901594443556,0.5220063149724423
327,111015_4,2,2,7,dog_implic,dog_implic,dog_control,implicature,implicature,target,distractor,L,dog_implic,Y,11/10/2015,13:30:00,1.647,5.03,5,M,100,1,0.4989554511955033,0.34839901594443556,0.5220063149724423
328,111015_4,2,2,44,cat_control,cat_foil,cat_control,implicature,unambiguous,distractor,target,R,cat_control,Y,11/10/2015,13:30:00,2.473,5.03,5,M,100,1,0.9054319885392791,0.34839901594443556,0.5220063149724423
329,111015_4,2,2,60,dog_neg,dog_neg,dog_pos,negation,negative,target,distractor,L,dog_neg,Y,11/10/2015,13:30:00,1.371,5.03,5,M,100,1,0.31554040058017735,0.34839901594443556,0.5220063149724423
330,111015_4,2,2,1,cat_implic,cat_implic,cat_control,implicature,implicature,target,distractor,L,cat_implic,Y,11/10/2015,13:30:00,2.525,5.03,5,M,100,1,0.9262410627273231,0.34839901594443556,0.5220063149724423
331,111015_4,2,2,13,apple_implic,apple_control,apple_implic,implicature,implicature,distractor,target,R,apple_implic,Y,11/10/2015,13:30:00,1.019,5.03,5,M,100,1,0.018821754240587667,0.34839901594443556,0.5220063149724423
332,111015_4,2,2,8,dog_neg,dog_pos,dog_neg,negation,negative,distractor,target,R,dog_neg,Y,11/10/2015,13:30:00,1.481,5.03,5,M,100,1,0.3927175352856618,0.34839901594443556,0.5220063149724423
333,111015_4,2,2,47,bicycle_pos,bicycle_pos,bicycle_neg,negation,positive,target,distractor,L,bicycle_pos,Y,11/10/2015,13:30:00,1.444,5.03,5,M,100,1,0.36741704047063445,0.34839901594443556,0.5220063149724423
334,111015_4,2,2,50,banana_pos,banana_pos,banana_inhib,inhibition,control,target,distractor,R,banana_inhib,N,11/10/2015,13:30:00,0.356,5.03,5,M,100,0,-1.0328245481301066,0.34839901594443556,0.5220063149724423
335,111015_4,2,2,30,apple_neg,apple_pos,apple_neg,negation,negative,distractor,target,R,apple_neg,Y,11/10/2015,13:30:00,1.166,5.03,5,M,100,1,0.15357908792830058,0.34839901594443556,0.5220063149724423
336,111015_4,2,2,4,teddybear_implic,teddybear_implic,teddybear_control,implicature,implicature,target,distractor,L,teddybear_implic,Y,11/10/2015,13:30:00,1.373,5.03,5,M,100,1,0.316998126785834,0.34839901594443556,0.5220063149724423
337,111015_4,2,2,40,cat_inhib,cat_pos,cat_inhib,inhibition,inhib,distractor,target,R,cat_inhib,Y,11/10/2015,13:30:00,1.465,5.03,5,M,100,1,0.3818552424690307,0.34839901594443556,0.5220063149724423
338,111015_4,2,2,1,cup_pos,cup_pos,cup_inhib,inhibition,control,target,distractor,L,cup_pos,Y,11/10/2015,13:30:00,1.731,5.03,5,M,100,1,0.5486992761940722,0.34839901594443556,0.5220063149724423
339,111015_4,2,2,23,flower_neg,flower_neg,flower_pos,negation,negative,target,distractor,R,flower_pos,N,11/10/2015,13:30:00,0.846,5.03,5,M,100,0,-0.1672359193759138,0.34839901594443556,0.5220063149724423
340,111015_4,2,2,51,car_control,car_control,car_foil,implicature,unambiguous,target,distractor,L,car_control,Y,11/10/2015,13:30:00,1.234,5.03,5,M,100,1,0.21026092548319605,0.34839901594443556,0.5220063149724423
341,111015_4,2,2,28,flower_pos,flower_pos,flower_inhib,inhibition,control,target,distractor,L,flower_pos,Y,11/10/2015,13:30:00,1.273,5.03,5,M,100,1,0.2413763195752694,0.34839901594443556,0.5220063149724423
342,111015_4,2,2,29,flower_pos,flower_inhib,flower_pos,inhibition,control,distractor,target,R,flower_pos,Y,11/10/2015,13:30:00,0.746,5.03,5,M,100,1,-0.2930296787783762,0.34839901594443556,0.5220063149724423
343,111015_4,2,2,19,cat_control,cat_foil,cat_control,implicature,unambiguous,distractor,target,R,cat_control,Y,11/10/2015,13:30:00,1.81,5.03,5,M,100,1,0.5933268452777344,0.34839901594443556,0.5220063149724423
344,111015_4,2,2,79,apple_inhib,apple_pos,apple_inhib,inhibition,inhib,distractor,target,R,apple_inhib,Y,11/10/2015,13:30:00,1.105,5.03,5,M,100,1,0.09984533496971612,0.34839901594443556,0.5220063149724423
345,111015_4,2,2,29,cup_neg,cup_pos,cup_neg,negation,negative,distractor,target,R,cup_neg,Y,11/10/2015,13:30:00,1.098,5.03,5,M,100,1,0.09349034308733897,0.34839901594443556,0.5220063149724423
346,111015_4,2,2,4,cup_pos,cup_pos,cup_inhib,inhibition,control,target,distractor,L,cup_pos,Y,11/10/2015,13:30:00,0.713,5.03,5,M,100,1,-0.33827385856784115,0.34839901594443556,0.5220063149724423
347,111015_4,2,2,22,cookie_pos,cookie_inhib,cookie_pos,inhibition,control,distractor,target,R,cookie_pos,Y,11/10/2015,13:30:00,1.058,5.03,5,M,100,1,0.05638033343610769,0.34839901594443556,0.5220063149724423
348,111015_4,2,2,42,bicycle_pos,bicycle_inhib,bicycle_pos,inhibition,control,distractor,target,R,bicycle_pos,Y,11/10/2015,13:30:00,0.562,5.03,5,M,100,1,-0.5762534290884459,0.34839901594443556,0.5220063149724423
349,111015_4,2,2,31,flower_pos,flower_inhib,flower_pos,inhibition,control,distractor,target,R,flower_pos,Y,11/10/2015,13:30:00,0.93,5.03,5,M,100,1,-0.07257069283483537,0.34839901594443556,0.5220063149724423
350,111015_4,2,2,43,bicycle_pos,bicycle_inhib,bicycle_pos,inhibition,control,distractor,target,R,bicycle_pos,Y,11/10/2015,13:30:00,0.932,5.03,5,M,100,1,-0.07042246429654582,0.34839901594443556,0.5220063149724423
351,111015_4,2,2,53,bicycle_control,bicycle_control,bicycle_foil,implicature,unambiguous,target,distractor,L,bicycle_control,Y,11/10/2015,13:30:00,2.109,5.03,5,M,100,1,0.7462139014966376,0.34839901594443556,0.5220063149724423
352,111015_4,2,2,38,cat_pos,cat_inhib,cat_pos,inhibition,control,distractor,target,R,cat_pos,Y,11/10/2015,13:30:00,1.034,5.03,5,M,100,1,0.03343477608623742,0.34839901594443556,0.5220063149724423
353,111015_4,2,2,48,bicycle_implic,bicycle_implic,bicycle_control,implicature,implicature,target,distractor,L,bicycle_implic,Y,11/10/2015,13:30:00,0.95,5.03,5,M,100,1,-0.05129329438755058,0.34839901594443556,0.5220063149724423
354,111015_4,2,2,52,lamp_implic,lamp_implic,lamp_control,implicature,implicature,target,distractor,L,lamp_implic,Y,11/10/2015,13:30:00,1.978,5.03,5,M,100,1,0.6820862332005203,0.34839901594443556,0.5220063149724423
355,111015_4,2,2,45,cat_pos,cat_pos,cat_neg,negation,positive,target,distractor,L,cat_pos,Y,11/10/2015,13:30:00,2.109,5.03,5,M,100,1,0.7462139014966376,0.34839901594443556,0.5220063149724423
356,111015_4,2,2,17,bird_pos,bird_pos,bird_neg,negation,positive,target,distractor,L,bird_pos,Y,11/10/2015,13:30:00,3.241,5.03,5,M,100,1,1.1758819241594103,0.34839901594443556,0.5220063149724423
357,111015_4,2,2,16,teddybear_implic,teddybear_control,teddybear_implic,implicature,implicature,distractor,target,R,teddybear_implic,Y,11/10/2015,13:30:00,1.563,5.03,5,M,100,1,0.44660705143933954,0.34839901594443556,0.5220063149724423
358,111015_4,2,2,2,bicycle_control,bicycle_control,bicycle_foil,implicature,unambiguous,target,distractor,L,bicycle_control,Y,11/10/2015,13:30:00,2.528,5.03,5,M,100,1,0.927428476284611,0.34839901594443556,0.5220063149724423
359,111015_4,2,2,25,lamp_pos,lamp_pos,lamp_neg,negation,positive,target,distractor,L,lamp_pos,Y,11/10/2015,13:30:00,2.587,5.03,5,M,100,1,0.9504989032038922,0.34839901594443556,0.5220063149724423
360,111015_4,2,2,47,banana_pos,banana_pos,banana_inhib,inhibition,control,target,distractor,L,banana_pos,Y,11/10/2015,13:30:00,1.339,5.03,5,M,100,1,0.29192306670903545,0.34839901594443556,0.5220063149724423
361,111015_4,2,2,46,flower_implic,flower_control,flower_implic,implicature,implicature,distractor,target,R,flower_implic,Y,11/10/2015,13:30:00,2.577,5.03,5,M,100,1,0.946625931670228,0.34839901594443556,0.5220063149724423
362,111015_4,2,2,41,bicycle_pos,bicycle_inhib,bicycle_pos,inhibition,control,distractor,target,R,bicycle_pos,Y,11/10/2015,13:30:00,0.907,5.03,5,M,100,1,-0.09761282886700041,0.34839901594443556,0.5220063149724423
363,111015_4,2,2,19,cup_pos,cup_neg,cup_pos,negation,positive,distractor,target,R,cup_pos,Y,11/10/2015,13:30:00,1.467,5.03,5,M,100,1,0.38321949916084475,0.34839901594443556,0.5220063149724423
364,111015_4,2,2,20,lamp_neg,lamp_pos,lamp_neg,negation,negative,distractor,target,R,lamp_neg,Y,11/10/2015,13:30:00,1.265,5.03,5,M,100,1,0.23507212217948348,0.34839901594443556,0.5220063149724423
365,111015_4,2,2,21,car_pos,car_neg,car_pos,negation,positive,distractor,target,R,car_pos,Y,11/10/2015,13:30:00,1.727,5.03,5,M,100,1,0.5463857991645416,0.34839901594443556,0.5220063149724423
366,111015_4,2,2,39,cat_pos,cat_inhib,cat_pos,inhibition,control,distractor,target,R,cat_pos,Y,11/10/2015,13:30:00,1.274,5.03,5,M,100,1,0.24216155714997162,0.34839901594443556,0.5220063149724423
367,111015_4,2,2,60,banana_implic,banana_control,banana_implic,implicature,implicature,distractor,target,R,banana_implic,Y,11/10/2015,13:30:00,1.847,5.03,5,M,100,1,0.6135627012171029,0.34839901594443556,0.5220063149724423
368,111015_4,2,2,46,bicycle_inhib,bicycle_pos,bicycle_inhib,inhibition,inhib,distractor,target,R,bicycle_inhib,Y,11/10/2015,13:30:00,1.276,5.03,5,M,100,1,0.24373018492259815,0.34839901594443556,0.5220063149724423
369,111015_4,2,2,3,cup_implic,cup_implic,cup_control,implicature,implicature,target,distractor,L,cup_implic,Y,11/10/2015,13:30:00,1.309,5.03,5,M,100,1,0.2692634869277628,0.34839901594443556,0.5220063149724423
370,111015_4,2,2,8,cookie_control,cookie_control,cookie_foil,implicature,unambiguous,target,distractor,L,cookie_control,Y,11/10/2015,13:30:00,1.78,5.03,5,M,100,1,0.5766133643039938,0.34839901594443556,0.5220063149724423
371,111015_4,2,2,45,bicycle_pos,bicycle_pos,bicycle_inhib,inhibition,control,target,distractor,L,bicycle_pos,Y,11/10/2015,13:30:00,0.949,5.03,5,M,100,1,-0.052346480372209236,0.34839901594443556,0.5220063149724423
372,111015_4,2,2,10,flower_implic,flower_control,flower_implic,implicature,implicature,distractor,target,R,flower_implic,Y,11/10/2015,13:30:00,1.839,5.03,5,M,100,1,0.609221945622184,0.34839901594443556,0.5220063149724423
373,111015_4,2,2,58,teddybear_pos,teddybear_pos,teddybear_neg,negation,positive,target,distractor,L,teddybear_pos,Y,11/10/2015,13:30:00,0.842,5.03,5,M,100,1,-0.17197526473981037,0.34839901594443556,0.5220063149724423
374,111015_4,2,2,28,dog_neg,dog_neg,dog_pos,negation,negative,target,distractor,L,dog_neg,Y,11/10/2015,13:30:00,1.954,5.03,5,M,100,1,0.669878553620591,0.34839901594443556,0.5220063149724423
375,111015_4,2,2,36,cat_pos,cat_inhib,cat_pos,inhibition,control,distractor,target,R,cat_pos,Y,11/10/2015,13:30:00,0.512,5.03,5,M,100,1,-0.6694306539426292,0.34839901594443556,0.5220063149724423
376,111015_4,2,2,32,flower_pos,flower_inhib,flower_pos,inhibition,control,distractor,target,R,flower_pos,Y,11/10/2015,13:30:00,1.377,5.03,5,M,100,1,0.3199072197465178,0.34839901594443556,0.5220063149724423
377,111015_4,2,2,37,cat_pos,cat_pos,cat_inhib,inhibition,control,target,distractor,L,cat_pos,Y,11/10/2015,13:30:00,1.216,5.03,5,M,100,1,0.19556678354397525,0.34839901594443556,0.5220063149724423
378,111015_4,2,2,33,flower_inhib,flower_pos,flower_inhib,inhibition,inhib,distractor,target,L,flower_pos,N,11/10/2015,13:30:00,0.801,5.03,5,M,100,0,-0.22189433191377778,0.34839901594443556,0.5220063149724423
379,111015_4,2,2,34,cat_pos,cat_pos,cat_inhib,inhibition,control,target,distractor,R,cat_inhib,N,11/10/2015,13:30:00,1.165,5.03,5,M,100,0,0.15272108701766393,0.34839901594443556,0.5220063149724423
380,111015_4,2,2,45,bird_control,bird_foil,bird_control,implicature,unambiguous,distractor,target,R,bird_control,Y,11/10/2015,13:30:00,2.269,5.03,5,M,100,1,0.8193392057977047,0.34839901594443556,0.5220063149724423
381,111015_4,2,2,17,bicycle_implic,bicycle_control,bicycle_implic,implicature,implicature,distractor,target,R,bicycle_implic,Y,11/10/2015,13:30:00,1.017,5.03,5,M,100,1,0.016857117066422806,0.34839901594443556,0.5220063149724423
382,111015_4,2,2,44,bicycle_pos,bicycle_pos,bicycle_inhib,inhibition,control,target,distractor,L,bicycle_pos,Y,11/10/2015,13:30:00,1.226,5.03,5,M,100,1,0.20375683751401963,0.34839901594443556,0.5220063149724423
383,111015_4,2,2,27,bicycle_neg,bicycle_pos,bicycle_neg,negation,negative,distractor,target,R,bicycle_neg,Y,11/10/2015,13:30:00,1.285,5.03,5,M,100,1,0.25075871834718305,0.34839901594443556,0.5220063149724423
384,111015_4,2,2,26,flower_neg,flower_neg,flower_pos,negation,negative,target,distractor,L,flower_neg,Y,11/10/2015,13:30:00,1.391,5.03,5,M,100,1,0.33002291294130587,0.34839901594443556,0.5220063149724423
385,111015_4,2,2,58,apple_control,apple_foil,apple_control,implicature,unambiguous,distractor,target,R,apple_control,Y,11/10/2015,13:30:00,1.516,5.03,5,M,100,1,0.41607528722017995,0.34839901594443556,0.5220063149724423
386,111015_4,2,2,12,lamp_control,lamp_control,lamp_foil,implicature,unambiguous,target,distractor,L,lamp_control,Y,11/10/2015,13:30:00,1.41,5.03,5,M,100,1,0.34358970439007686,0.34839901594443556,0.5220063149724423
387,111015_4,2,2,57,cookie_pos,cookie_pos,cookie_neg,negation,positive,target,distractor,L,cookie_pos,Y,11/10/2015,13:30:00,1.568,5.03,5,M,100,1,0.44980092192821614,0.34839901594443556,0.5220063149724423
388,111015_4,2,2,18,flower_implic,flower_implic,flower_control,implicature,implicature,target,distractor,L,flower_implic,Y,11/10/2015,13:30:00,1.896,5.03,5,M,100,1,0.63974640383283,0.34839901594443556,0.5220063149724423
389,111015_4,2,2,56,cookie_implic,cookie_implic,cookie_control,implicature,implicature,target,distractor,L,cookie_implic,Y,11/10/2015,13:30:00,0.914,5.03,5,M,100,1,-0.08992470752798701,0.34839901594443556,0.5220063149724423
390,111015_4,2,2,54,dog_control,dog_control,dog_foil,implicature,unambiguous,target,distractor,L,dog_control,Y,11/10/2015,13:30:00,2.586,5.03,5,M,100,1,0.9501122803496657,0.34839901594443556,0.5220063149724423
391,111015_4,2,2,30,flower_pos,flower_pos,flower_inhib,inhibition,control,target,distractor,L,flower_pos,Y,11/10/2015,13:30:00,1.007,5.03,5,M,100,1,0.006975613736425138,0.34839901594443556,0.5220063149724423
392,111015_4,2,2,59,cup_implic,cup_control,cup_implic,implicature,implicature,distractor,target,R,cup_implic,Y,11/10/2015,13:30:00,1.787,5.03,5,M,100,1,0.580538236177291,0.34839901594443556,0.5220063149724423
393,111015_4,2,2,2,cup_pos,cup_pos,cup_inhib,inhibition,control,target,distractor,L,cup_pos,Y,11/10/2015,13:30:00,1.29,5.03,5,M,100,1,0.25464221837358075,0.34839901594443556,0.5220063149724423
394,111015_4,2,2,57,cat_implic,cat_implic,cat_control,implicature,implicature,target,distractor,L,cat_implic,Y,11/10/2015,13:30:00,1.42,5.03,5,M,100,1,0.35065687161316933,0.34839901594443556,0.5220063149724423
395,111015_4,2,2,55,teddybear_implic,teddybear_implic,teddybear_control,implicature,implicature,target,distractor,L,teddybear_implic,Y,11/10/2015,13:30:00,1.273,5.03,5,M,100,1,0.2413763195752694,0.34839901594443556,0.5220063149724423
396,111015_4,2,2,11,car_implic,car_implic,car_control,implicature,implicature,target,distractor,L,car_implic,Y,11/10/2015,13:30:00,1.351,5.03,5,M,100,1,0.3008450589780618,0.34839901594443556,0.5220063149724423
397,111015_4,2,2,9,banana_control,banana_foil,banana_control,implicature,unambiguous,distractor,target,R,banana_control,Y,11/10/2015,13:30:00,2.38,5.03,5,M,100,1,0.8671004876833833,0.34839901594443556,0.5220063149724423
398,111015_4,2,2,35,cat_pos,cat_inhib,cat_pos,inhibition,control,distractor,target,L,cat_inhib,N,11/10/2015,13:30:00,1.265,5.03,5,M,100,0,0.23507212217948348,0.34839901594443556,0.5220063149724423
399,111115_1,1,5,22,car_control,car_foil,car_control,implicature,unambiguous,distractor,target,R,car_control,Y,11/11/2015,11:07:00,1.651,6.71,6,M,100,1,0.501381164937991,0.34839901594443556,0.5220063149724423
400,111115_1,1,5,20,lamp_implic,lamp_implic,lamp_control,implicature,implicature,target,distractor,L,lamp_implic,Y,11/11/2015,11:07:00,1.273,6.71,6,M,100,1,0.2413763195752694,0.34839901594443556,0.5220063149724423
401,111115_1,1,5,19,dog_inhib,dog_pos,dog_inhib,inhibition,inhib,distractor,target,R,dog_inhib,Y,11/11/2015,11:07:00,0.789,6.71,6,M,100,1,-0.23698895813626278,0.34839901594443556,0.5220063149724423
402,111115_1,1,5,60,lamp_pos,lamp_pos,lamp_inhib,inhibition,control,target,distractor,L,lamp_pos,Y,11/11/2015,11:07:00,0.717,6.71,6,M,100,1,-0.33267943838251673,0.34839901594443556,0.5220063149724423
403,111115_1,1,5,51,car_neg,car_pos,car_neg,negation,negative,distractor,target,R,car_neg,Y,11/11/2015,11:07:00,1.085,6.71,6,M,100,1,0.08157998699242285,0.34839901594443556,0.5220063149724423
404,111115_1,1,5,18,dog_pos,dog_pos,dog_inhib,inhibition,control,target,distractor,L,dog_pos,Y,11/11/2015,11:07:00,0.951,6.71,6,M,100,1,-0.05024121643674679,0.34839901594443556,0.5220063149724423
405,111115_1,1,5,17,dog_pos,dog_pos,dog_inhib,inhibition,control,target,distractor,L,dog_pos,Y,11/11/2015,11:07:00,0.995,6.71,6,M,100,1,-0.005012541823544286,0.34839901594443556,0.5220063149724423
406,111115_1,1,5,50,teddybear_pos,teddybear_neg,teddybear_pos,negation,positive,distractor,target,R,teddybear_pos,Y,11/11/2015,11:07:00,0.984,6.71,6,M,100,1,-0.016129381929883644,0.34839901594443556,0.5220063149724423
407,111115_1,1,5,24,teddybear_implic,teddybear_implic,teddybear_control,implicature,implicature,target,distractor,R,teddybear_control,N,11/11/2015,11:07:00,1,6.71,6,M,100,0,0,0.34839901594443556,0.5220063149724423
408,111115_1,1,5,25,bird_control,bird_control,bird_foil,implicature,unambiguous,target,distractor,L,bird_control,Y,11/11/2015,11:07:00,1.474,6.71,6,M,100,1,0.38797979376714486,0.34839901594443556,0.5220063149724423
409,111115_1,1,5,21,teddybear_pos,teddybear_inhib,teddybear_pos,inhibition,control,distractor,target,R,teddybear_pos,Y,11/11/2015,11:07:00,0.856,6.71,6,M,100,1,-0.15548490284039498,0.34839901594443556,0.5220063149724423
410,111115_1,1,5,20,teddybear_pos,teddybear_inhib,teddybear_pos,inhibition,control,distractor,target,R,teddybear_pos,Y,11/11/2015,11:07:00,1.598,6.71,6,M,100,1,0.46875284734408296,0.34839901594443556,0.5220063149724423
411,111115_1,1,5,16,dog_pos,dog_pos,dog_inhib,inhibition,control,target,distractor,L,dog_pos,Y,11/11/2015,11:07:00,1.168,6.71,6,M,100,1,0.15529288440603525,0.34839901594443556,0.5220063149724423
412,111115_1,1,5,59,lamp_pos,lamp_inhib,lamp_pos,inhibition,control,distractor,target,R,lamp_pos,Y,11/11/2015,11:07:00,2.948,6.71,6,M,100,1,1.0811269743270902,0.34839901594443556,0.5220063149724423
413,111115_1,1,5,21,banana_implic,banana_implic,banana_control,implicature,implicature,target,distractor,R,banana_control,N,11/11/2015,11:07:00,1.227,6.71,6,M,100,0,0.20457216572877446,0.34839901594443556,0.5220063149724423
414,111115_1,1,5,1,dog_neg,dog_pos,dog_neg,negation,negative,distractor,target,R,dog_neg,Y,11/11/2015,11:07:00,3.089,6.71,6,M,100,1,1.1278474139364447,0.34839901594443556,0.5220063149724423
415,111115_1,1,5,31,apple_pos,apple_pos,apple_neg,negation,positive,target,distractor,L,apple_pos,Y,11/11/2015,11:07:00,0.954,6.71,6,M,100,1,-0.04709160753385057,0.34839901594443556,0.5220063149724423
416,111115_1,1,5,34,bicycle_pos,bicycle_neg,bicycle_pos,negation,positive,distractor,target,L,bicycle_neg,N,11/11/2015,11:07:00,1.393,6.71,6,M,100,0,0.3314596947976687,0.34839901594443556,0.5220063149724423
417,111115_1,1,5,49,flower_pos,flower_pos,flower_inhib,inhibition,control,target,distractor,L,flower_pos,Y,11/11/2015,11:07:00,0.666,6.71,6,M,100,1,-0.40646560844174784,0.34839901594443556,0.5220063149724423
418,111115_1,1,5,23,cup_control,cup_control,cup_foil,implicature,unambiguous,target,distractor,L,cup_control,Y,11/11/2015,11:07:00,0.867,6.71,6,M,100,1,-0.1427163022015952,0.34839901594443556,0.5220063149724423
419,111115_1,1,5,60,cat_implic,cat_implic,cat_control,implicature,implicature,target,distractor,L,cat_implic,Y,11/11/2015,11:07:00,2.243,6.71,6,M,100,1,0.8078142555380712,0.34839901594443556,0.5220063149724423
420,111115_1,1,5,46,banana_pos,banana_neg,banana_pos,negation,positive,distractor,target,R,banana_pos,Y,11/11/2015,11:07:00,0.891,6.71,6,M,100,1,-0.11541085151132773,0.34839901594443556,0.5220063149724423
421,111115_1,1,5,61,lamp_pos,lamp_inhib,lamp_pos,inhibition,control,distractor,target,R,lamp_pos,Y,11/11/2015,11:07:00,0.514,6.71,6,M,100,1,-0.6655320135269719,0.34839901594443556,0.5220063149724423
422,111115_1,1,5,19,apple_control,apple_foil,apple_control,implicature,unambiguous,distractor,target,R,apple_control,Y,11/11/2015,11:07:00,1.316,6.71,6,M,100,1,0.2745968329031255,0.34839901594443556,0.5220063149724423
423,111115_1,1,5,33,dog_neg,dog_neg,dog_pos,negation,negative,target,distractor,L,dog_neg,Y,11/11/2015,11:07:00,1.067,6.71,6,M,100,1,0.06485097231961627,0.34839901594443556,0.5220063149724423
424,111115_1,1,5,32,cup_control,cup_foil,cup_control,implicature,unambiguous,distractor,target,R,cup_control,Y,11/11/2015,11:07:00,1.18,6.71,6,M,100,1,0.16551443847757333,0.34839901594443556,0.5220063149724423
425,111115_1,1,5,49,cup_neg,cup_pos,cup_neg,negation,negative,distractor,target,R,cup_neg,Y,11/11/2015,11:07:00,1.076,6.71,6,M,100,1,0.07325046173959274,0.34839901594443556,0.5220063149724423
426,111115_1,1,5,31,bicycle_implic,bicycle_implic,bicycle_control,implicature,implicature,target,distractor,R,bicycle_control,N,11/11/2015,11:07:00,0.776,6.71,6,M,100,0,-0.25360275879891825,0.34839901594443556,0.5220063149724423
427,111115_1,1,5,37,teddybear_neg,teddybear_neg,teddybear_pos,negation,negative,target,distractor,R,teddybear_pos,N,11/11/2015,11:07:00,0.716999999999998,6.71,6,M,100,0,-0.3326794383825195,0.34839901594443556,0.5220063149724423
428,111115_1,1,5,15,dog_pos,dog_inhib,dog_pos,inhibition,control,distractor,target,R,dog_pos,Y,11/11/2015,11:07:00,0.865,6.71,6,M,100,1,-0.14502577205025774,0.34839901594443556,0.5220063149724423
429,111115_1,1,5,32,cup_pos,cup_neg,cup_pos,negation,positive,distractor,target,R,cup_pos,Y,11/11/2015,11:07:00,1.306,6.71,6,M,100,1,0.26696903085423934,0.34839901594443556,0.5220063149724423
430,111115_1,1,5,52,apple_pos,apple_neg,apple_pos,negation,positive,distractor,target,R,apple_pos,Y,11/11/2015,11:07:00,1.003,6.71,6,M,100,1,0.002995508979798371,0.34839901594443556,0.5220063149724423
431,111115_1,1,5,59,bicycle_implic,bicycle_implic,bicycle_control,implicature,implicature,target,distractor,R,bicycle_control,N,11/11/2015,11:07:00,0.889,6.71,6,M,100,0,-0.11765804346823246,0.34839901594443556,0.5220063149724423
432,111115_1,1,5,29,teddybear_neg,teddybear_pos,teddybear_neg,negation,negative,distractor,target,R,teddybear_neg,Y,11/11/2015,11:07:00,1.176,6.71,6,M,100,1,0.16211884947643512,0.34839901594443556,0.5220063149724423
433,111115_1,1,5,57,cookie_pos,cookie_pos,cookie_inhib,inhibition,control,target,distractor,L,cookie_pos,Y,11/11/2015,11:07:00,0.612,6.71,6,M,100,1,-0.491022996469811,0.34839901594443556,0.5220063149724423
434,111115_1,1,5,18,cookie_control,cookie_foil,cookie_control,implicature,unambiguous,distractor,target,R,cookie_control,Y,11/11/2015,11:07:00,1.042,6.71,6,M,100,1,0.04114194333117521,0.34839901594443556,0.5220063149724423
435,111115_1,1,5,55,cookie_pos,cookie_pos,cookie_inhib,inhibition,control,target,distractor,L,cookie_pos,Y,11/11/2015,11:07:00,0.643,6.71,6,M,100,1,-0.44161055474451766,0.34839901594443556,0.5220063149724423
436,111115_1,1,5,35,flower_neg,flower_neg,flower_pos,negation,negative,target,distractor,L,flower_neg,Y,11/11/2015,11:07:00,2.377,6.71,6,M,100,1,0.8658391883780567,0.34839901594443556,0.5220063149724423
437,111115_1,1,5,27,cat_pos,cat_neg,cat_pos,negation,positive,distractor,target,L,cat_neg,N,11/11/2015,11:07:00,1.179,6.71,6,M,100,0,0.16466662155523393,0.34839901594443556,0.5220063149724423
438,111115_1,1,5,58,cookie_inhib,cookie_inhib,cookie_pos,inhibition,inhib,target,distractor,R,cookie_pos,N,11/11/2015,11:07:00,0.641,6.71,6,M,100,0,-0.444725822061467,0.34839901594443556,0.5220063149724423
439,111115_1,1,5,27,banana_pos,banana_inhib,banana_pos,inhibition,control,distractor,target,R,banana_pos,Y,11/11/2015,11:07:00,0.694,6.71,6,M,100,1,-0.36528331847533263,0.34839901594443556,0.5220063149724423
440,111115_1,1,5,58,cup_control,cup_control,cup_foil,implicature,unambiguous,target,distractor,L,cup_control,Y,11/11/2015,11:07:00,1.004,6.71,6,M,100,1,0.003992021269537457,0.34839901594443556,0.5220063149724423
441,111115_1,1,5,14,dog_pos,dog_inhib,dog_pos,inhibition,control,distractor,target,R,dog_pos,Y,11/11/2015,11:07:00,0.913,6.71,6,M,100,1,-0.09101939838716855,0.34839901594443556,0.5220063149724423
442,111115_1,1,5,33,car_implic,car_control,car_implic,implicature,implicature,distractor,target,L,car_control,N,11/11/2015,11:07:00,1.51,6.71,6,M,100,0,0.412109650826833,0.34839901594443556,0.5220063149724423
443,111115_1,1,5,17,cat_implic,cat_implic,cat_control,implicature,implicature,target,distractor,L,cat_implic,Y,11/11/2015,11:07:00,1.289,6.71,6,M,100,1,0.2538667239570503,0.34839901594443556,0.5220063149724423
444,111115_1,1,5,47,cookie_neg,cookie_pos,cookie_neg,negation,negative,distractor,target,R,cookie_neg,Y,11/11/2015,11:07:00,1.883,6.71,6,M,100,1,0.6328662496750154,0.34839901594443556,0.5220063149724423
445,111115_1,1,5,5,car_pos,car_neg,car_pos,negation,positive,distractor,target,R,car_pos,Y,11/11/2015,11:07:00,1.259,6.71,6,M,100,1,0.23031775506221003,0.34839901594443556,0.5220063149724423
446,111115_1,1,5,29,flower_control,flower_foil,flower_control,implicature,unambiguous,distractor,target,R,flower_control,Y,11/11/2015,11:07:00,0.966,6.71,6,M,100,1,-0.03459144476961909,0.34839901594443556,0.5220063149724423
447,111115_1,1,5,48,apple_pos,apple_neg,apple_pos,negation,positive,distractor,target,L,apple_neg,N,11/11/2015,11:07:00,2.411,6.71,6,M,100,0,0.880041599199034,0.34839901594443556,0.5220063149724423
448,111115_1,1,5,68,bird_pos,bird_pos,bird_inhib,inhibition,control,target,distractor,L,bird_pos,Y,11/11/2015,11:07:00,0.628,6.71,6,M,100,1,-0.4652151125139384,0.34839901594443556,0.5220063149724423
449,111115_1,1,5,34,cookie_control,cookie_foil,cookie_control,implicature,unambiguous,distractor,target,R,cookie_control,Y,11/11/2015,11:07:00,0.81,6.71,6,M,100,1,-0.21072103131565253,0.34839901594443556,0.5220063149724423
450,111115_1,1,5,67,bird_pos,bird_inhib,bird_pos,inhibition,control,distractor,target,R,bird_pos,Y,11/11/2015,11:07:00,0.511,6.71,6,M,100,1,-0.6713856887784326,0.34839901594443556,0.5220063149724423
451,111115_1,1,5,26,banana_pos,banana_inhib,banana_pos,inhibition,control,distractor,target,R,banana_pos,Y,11/11/2015,11:07:00,0.952,6.71,6,M,100,1,-0.04919024419077178,0.34839901594443556,0.5220063149724423
452,111115_1,1,5,26,banana_implic,banana_implic,banana_control,implicature,implicature,target,distractor,R,banana_control,N,11/11/2015,11:07:00,0.979,6.71,6,M,100,0,-0.021223636451626688,0.34839901594443556,0.5220063149724423
453,111115_1,1,5,15,flower_implic,flower_implic,flower_control,implicature,implicature,target,distractor,L,flower_implic,Y,11/11/2015,11:07:00,1.397,6.71,6,M,100,1,0.3343270802748248,0.34839901594443556,0.5220063149724423
454,111115_1,1,5,16,bird_implic,bird_implic,bird_control,implicature,implicature,target,distractor,R,bird_control,N,11/11/2015,11:07:00,1.275,6.71,6,M,100,0,0.2429461786103894,0.34839901594443556,0.5220063149724423
455,111115_1,1,5,53,cookie_pos,cookie_pos,cookie_inhib,inhibition,control,target,distractor,L,cookie_pos,Y,11/11/2015,11:07:00,0.923,6.71,6,M,100,1,-0.08012604447928486,0.34839901594443556,0.5220063149724423
456,111115_1,1,5,51,flower_inhib,flower_inhib,flower_pos,inhibition,inhib,target,distractor,L,flower_inhib,Y,11/11/2015,11:07:00,1.14,6.71,6,M,100,1,0.131028262406404,0.34839901594443556,0.5220063149724423
457,111115_1,1,5,54,cookie_pos,cookie_pos,cookie_inhib,inhibition,control,target,distractor,L,cookie_pos,Y,11/11/2015,11:07:00,0.739,6.71,6,M,100,1,-0.3024573580339353,0.34839901594443556,0.5220063149724423
458,111115_1,1,5,52,cookie_pos,cookie_inhib,cookie_pos,inhibition,control,distractor,target,R,cookie_pos,Y,11/11/2015,11:07:00,1.091,6.71,6,M,100,1,0.08709470685093373,0.34839901594443556,0.5220063149724423
459,111115_1,1,5,47,flower_pos,flower_inhib,flower_pos,inhibition,control,distractor,target,R,flower_pos,Y,11/11/2015,11:07:00,0.37,6.71,6,M,100,1,-0.9942522733438669,0.34839901594443556,0.5220063149724423
460,111115_1,1,5,66,bird_pos,bird_pos,bird_inhib,inhibition,control,target,distractor,L,bird_pos,Y,11/11/2015,11:07:00,0.837,6.71,6,M,100,1,-0.17793120849266178,0.34839901594443556,0.5220063149724423
461,111115_1,1,5,28,bird_neg,bird_neg,bird_pos,negation,negative,target,distractor,L,bird_neg,Y,11/11/2015,11:07:00,4.422,6.71,6,M,100,1,1.4865920824352545,0.34839901594443556,0.5220063149724423
462,111115_1,1,5,6,cup_pos,cup_pos,cup_neg,negation,positive,target,distractor,L,cup_pos,Y,11/11/2015,11:07:00,1.091,6.71,6,M,100,1,0.08709470685093373,0.34839901594443556,0.5220063149724423
463,111115_1,1,5,36,lamp_neg,lamp_neg,lamp_pos,negation,negative,target,distractor,L,lamp_neg,Y,11/11/2015,11:07:00,1.272,6.71,6,M,100,1,0.24059046491793043,0.34839901594443556,0.5220063149724423
464,111115_1,1,5,22,teddybear_pos,teddybear_pos,teddybear_inhib,inhibition,control,target,distractor,L,teddybear_pos,Y,11/11/2015,11:07:00,0.839,6.71,6,M,100,1,-0.1755445725149309,0.34839901594443556,0.5220063149724423
465,111115_1,1,5,14,dog_implic,dog_implic,dog_control,implicature,implicature,target,distractor,L,dog_implic,Y,11/11/2015,11:07:00,1.851,6.71,6,M,100,1,0.6157260335913605,0.34839901594443556,0.5220063149724423
466,111115_1,1,5,39,cat_pos,cat_neg,cat_pos,negation,positive,distractor,target,R,cat_pos,Y,11/11/2015,11:07:00,1.412,6.71,6,M,100,1,0.3450071390710503,0.34839901594443556,0.5220063149724423
467,111115_1,1,5,23,teddybear_pos,teddybear_inhib,teddybear_pos,inhibition,control,distractor,target,R,teddybear_pos,Y,11/11/2015,11:07:00,0.832,6.71,6,M,100,1,-0.1839228381609285,0.34839901594443556,0.5220063149724423
468,111115_1,1,5,43,bicycle_pos,bicycle_pos,bicycle_neg,negation,positive,target,distractor,L,bicycle_pos,Y,11/11/2015,11:07:00,1.184,6.71,6,M,100,1,0.16889853646181388,0.34839901594443556,0.5220063149724423
469,111115_1,1,5,44,bird_neg,bird_neg,bird_pos,negation,negative,target,distractor,R,bird_pos,N,11/11/2015,11:07:00,0.562,6.71,6,M,100,0,-0.5762534290884459,0.34839901594443556,0.5220063149724423
470,111115_1,1,5,45,dog_pos,dog_pos,dog_neg,negation,positive,target,distractor,L,dog_pos,Y,11/11/2015,11:07:00,4.292,6.71,6,M,100,1,1.456752824768452,0.34839901594443556,0.5220063149724423
471,111115_1,1,5,30,teddybear_implic,teddybear_implic,teddybear_control,implicature,implicature,target,distractor,R,teddybear_control,N,11/11/2015,11:07:00,0.876,6.71,6,M,100,0,-0.13238918804574562,0.34839901594443556,0.5220063149724423
472,111115_1,1,5,4,cookie_neg,cookie_neg,cookie_pos,negation,negative,target,distractor,L,cookie_neg,Y,11/11/2015,11:07:00,1.687,6.71,6,M,100,1,0.5229518035638313,0.34839901594443556,0.5220063149724423
473,111115_1,1,5,30,cookie_pos,cookie_neg,cookie_pos,negation,positive,distractor,target,R,cookie_pos,Y,11/11/2015,11:07:00,0.805,6.71,6,M,100,1,-0.21691300156357363,0.34839901594443556,0.5220063149724423
474,111115_1,1,5,43,cat_pos,cat_inhib,cat_pos,inhibition,control,distractor,target,R,cat_pos,Y,11/11/2015,11:07:00,0.579,6.71,6,M,100,1,-0.5464528014091419,0.34839901594443556,0.5220063149724423
475,111115_1,1,5,5,cookie_control,cookie_foil,cookie_control,implicature,unambiguous,distractor,target,R,cookie_control,Y,11/11/2015,11:07:00,1.217,6.71,6,M,100,1,0.19638881400539018,0.34839901594443556,0.5220063149724423
476,111115_1,1,5,28,banana_pos,banana_inhib,banana_pos,inhibition,control,distractor,target,R,banana_pos,Y,11/11/2015,11:07:00,0.669,6.71,6,M,100,1,-0.4019712188539085,0.34839901594443556,0.5220063149724423
477,111115_1,1,5,53,dog_neg,dog_neg,dog_pos,negation,negative,target,distractor,L,dog_neg,Y,11/11/2015,11:07:00,1.305,6.71,6,M,100,1,0.2662030407746567,0.34839901594443556,0.5220063149724423
478,111115_1,1,5,62,lamp_pos,lamp_inhib,lamp_pos,inhibition,control,distractor,target,R,lamp_pos,Y,11/11/2015,11:07:00,0.828,6.71,6,M,100,1,-0.18874212459687742,0.34839901594443556,0.5220063149724423
479,111115_1,1,5,12,car_inhib,car_inhib,car_pos,inhibition,inhib,target,distractor,R,car_pos,N,11/11/2015,11:07:00,0.63,6.71,6,M,100,0,-0.4620354595965587,0.34839901594443556,0.5220063149724423
480,111115_1,1,5,8,car_pos,car_pos,car_inhib,inhibition,control,target,distractor,L,car_pos,Y,11/11/2015,11:07:00,0.808,6.71,6,M,100,1,-0.2131932204610416,0.34839901594443556,0.5220063149724423
481,111115_1,1,5,56,cookie_pos,cookie_inhib,cookie_pos,inhibition,control,distractor,target,R,cookie_pos,Y,11/11/2015,11:07:00,0.781,6.71,6,M,100,1,-0.24718012914245105,0.34839901594443556,0.5220063149724423
482,111115_1,1,5,57,teddybear_implic,teddybear_implic,teddybear_control,implicature,implicature,target,distractor,R,teddybear_control,N,11/11/2015,11:07:00,0.912,6.71,6,M,100,0,-0.09211528890780563,0.34839901594443556,0.5220063149724423
483,111115_1,1,5,50,flower_pos,flower_inhib,flower_pos,inhibition,control,distractor,target,R,flower_pos,Y,11/11/2015,11:07:00,0.646,6.71,6,M,100,1,-0.43695577519953516,0.34839901594443556,0.5220063149724423
484,111115_1,1,5,48,flower_pos,flower_inhib,flower_pos,inhibition,control,distractor,target,R,flower_pos,Y,11/11/2015,11:07:00,0.468,6.71,6,M,100,1,-0.7592869830644903,0.34839901594443556,0.5220063149724423
485,111115_1,1,5,46,flower_pos,flower_inhib,flower_pos,inhibition,control,distractor,target,R,flower_pos,Y,11/11/2015,11:07:00,0.536,6.71,6,M,100,1,-0.623621117911335,0.34839901594443556,0.5220063149724423
486,111115_1,1,5,3,teddybear_pos,teddybear_neg,teddybear_pos,negation,positive,distractor,target,R,teddybear_pos,Y,11/11/2015,11:07:00,1.043,6.71,6,M,100,1,0.042101176018635326,0.34839901594443556,0.5220063149724423
487,111115_1,1,5,4,cat_implic,cat_implic,cat_control,implicature,implicature,target,distractor,L,cat_implic,Y,11/11/2015,11:07:00,2.603,6.71,6,M,100,1,0.9566646260124284,0.34839901594443556,0.5220063149724423
488,111115_1,1,5,26,banana_pos,banana_pos,banana_neg,negation,positive,target,distractor,L,banana_pos,Y,11/11/2015,11:07:00,0.957,6.71,6,M,100,1,-0.04395188752918283,0.34839901594443556,0.5220063149724423
489,111115_1,1,5,2,apple_pos,apple_pos,apple_inhib,inhibition,control,target,distractor,L,apple_pos,Y,11/11/2015,11:07:00,1.225,6.71,6,M,100,1,0.20294084399669038,0.34839901594443556,0.5220063149724423
490,111115_1,1,5,7,bicycle_neg,bicycle_pos,bicycle_neg,negation,negative,distractor,target,R,bicycle_neg,Y,11/11/2015,11:07:00,1.346,6.71,6,M,100,1,0.2971372312225361,0.34839901594443556,0.5220063149724423
491,111115_1,1,5,58,cat_pos,cat_neg,cat_pos,negation,positive,distractor,target,R,cat_pos,Y,11/11/2015,11:07:00,0.664,6.71,6,M,100,1,-0.40947312950570314,0.34839901594443556,0.5220063149724423
492,111115_1,1,5,1,banana_control,banana_control,banana_foil,implicature,unambiguous,target,distractor,L,banana_control,Y,11/11/2015,11:07:00,4.707,6.71,6,M,100,1,1.5490507624190053,0.34839901594443556,0.5220063149724423
493,111115_1,1,5,2,cup_implic,cup_control,cup_implic,implicature,implicature,distractor,target,R,cup_implic,Y,11/11/2015,11:07:00,1.546,6.71,6,M,100,1,0.4356709501652302,0.34839901594443556,0.5220063149724423
494,111115_1,1,5,40,car_neg,car_neg,car_pos,negation,negative,target,distractor,L,car_neg,Y,11/11/2015,11:07:00,0.915,6.71,6,M,100,1,-0.0888312137066157,0.34839901594443556,0.5220063149724423
495,111115_1,1,5,27,apple_implic,apple_control,apple_implic,implicature,implicature,distractor,target,L,apple_control,N,11/11/2015,11:07:00,0.97,6.71,6,M,100,0,-0.030459207484708574,0.34839901594443556,0.5220063149724423
496,111115_1,1,5,28,cat_control,cat_foil,cat_control,implicature,unambiguous,distractor,target,R,cat_control,Y,11/11/2015,11:07:00,2.273,6.71,6,M,100,1,0.8211005448704062,0.34839901594443556,0.5220063149724423
497,111115_1,1,5,25,teddybear_inhib,teddybear_pos,teddybear_inhib,inhibition,inhib,distractor,target,R,teddybear_inhib,Y,11/11/2015,11:07:00,0.974,6.71,6,M,100,1,-0.026343975339601977,0.34839901594443556,0.5220063149724423
498,111115_1,1,5,24,teddybear_pos,teddybear_inhib,teddybear_pos,inhibition,control,distractor,target,R,teddybear_pos,Y,11/11/2015,11:07:00,0.794,6.71,6,M,100,1,-0.23067181773500128,0.34839901594443556,0.5220063149724423
499,111115_1,1,5,44,cat_inhib,cat_pos,cat_inhib,inhibition,inhib,distractor,target,R,cat_inhib,Y,11/11/2015,11:07:00,1.022,6.71,6,M,100,1,0.02176149178151271,0.34839901594443556,0.5220063149724423
500,111115_1,1,5,23,banana_pos,banana_pos,banana_neg,negation,positive,target,distractor,L,banana_pos,Y,11/11/2015,11:07:00,3.966,6.71,6,M,100,1,1.3777580300976042,0.34839901594443556,0.5220063149724423
501,111115_1,1,5,1,apple_pos,apple_pos,apple_inhib,inhibition,control,target,distractor,L,apple_pos,Y,11/11/2015,11:07:00,2.022,6.71,6,M,100,1,0.7040871205982796,0.34839901594443556,0.5220063149724423
502,111115_1,1,5,41,car_control,car_foil,car_control,implicature,unambiguous,distractor,target,R,car_control,Y,11/11/2015,11:07:00,0.628,6.71,6,M,100,1,-0.4652151125139384,0.34839901594443556,0.5220063149724423
