X1,subid,list,game.order,trial.num,word,leftpic,rightpic,game,trial.type,leftpic.type,rightpic.type,side.chosen,pic.chosen,response,date,timestamp,rt,response_numeric,log_rt,m_log_rt,sd_log_rt
1,1,2,4,1,cat_control,cat_control,cat_foil,implicature,unambiguous,target,distractor,L,cat_control,Y,7/23/2015,12:17:00,1.315,1,0.27383666562972786,-0.23752603141136527,0.3746167648693195
2,1,2,4,2,bicycle_control,bicycle_foil,bicycle_control,implicature,unambiguous,distractor,target,R,bicycle_control,Y,7/23/2015,12:17:00,1.429,1,0.3569748989477304,-0.23752603141136527,0.3746167648693195
3,1,2,4,3,cup_control,cup_foil,cup_control,implicature,unambiguous,distractor,target,R,cup_control,Y,7/23/2015,12:17:00,0.915,1,-0.0888312137066157,-0.23752603141136527,0.3746167648693195
4,1,2,4,4,teddybear_control,teddybear_foil,teddybear_control,implicature,unambiguous,distractor,target,R,teddybear_control,Y,7/23/2015,12:17:00,0.964,1,-0.03666398437159147,-0.23752603141136527,0.3746167648693195
5,1,2,4,5,bird_control,bird_foil,bird_control,implicature,unambiguous,distractor,target,R,bird_control,Y,7/23/2015,12:17:00,0.724,1,-0.3229638865964207,-0.23752603141136527,0.3746167648693195
6,1,2,4,6,apple_implic,apple_implic,apple_control,implicature,implicature,target,distractor,L,apple_implic,Y,7/23/2015,12:17:00,0.692,1,-0.36816932336446756,-0.23752603141136527,0.3746167648693195
7,1,2,4,7,dog_control,dog_control,dog_foil,implicature,unambiguous,target,distractor,L,dog_control,Y,7/23/2015,12:17:00,0.812,1,-0.20825493882045903,-0.23752603141136527,0.3746167648693195
8,1,2,4,8,cookie_control,cookie_foil,cookie_control,implicature,unambiguous,distractor,target,R,cookie_control,Y,7/23/2015,12:17:00,0.685,1,-0.3783364407199117,-0.23752603141136527,0.3746167648693195
9,1,2,4,9,banana_control,banana_control,banana_foil,implicature,unambiguous,target,distractor,L,banana_control,Y,7/23/2015,12:17:00,0.827,1,-0.1899505839584458,-0.23752603141136527,0.3746167648693195
10,1,2,4,10,flower_implic,flower_implic,flower_control,implicature,implicature,target,distractor,L,flower_implic,Y,7/23/2015,12:17:00,0.817,1,-0.20211618412213422,-0.23752603141136527,0.3746167648693195
11,1,2,4,11,car_control,car_foil,car_control,implicature,unambiguous,distractor,target,R,car_control,Y,7/23/2015,12:17:00,0.731,1,-0.3133418192323586,-0.23752603141136527,0.3746167648693195
12,1,2,4,12,lamp_control,lamp_foil,lamp_control,implicature,unambiguous,distractor,target,R,lamp_control,Y,7/23/2015,12:17:00,0.767,1,-0.26526847761488087,-0.23752603141136527,0.3746167648693195
13,1,2,4,13,apple_implic,apple_implic,apple_control,implicature,implicature,target,distractor,L,apple_implic,Y,7/23/2015,12:17:00,0.662,1,-0.41248972304512876,-0.23752603141136527,0.3746167648693195
14,1,2,4,14,dog_implic,dog_control,dog_implic,implicature,implicature,distractor,target,L,dog_control,N,7/23/2015,12:17:00,0.684,0,-0.3797973613595865,-0.23752603141136527,0.3746167648693195
15,1,2,4,15,cup_implic,cup_implic,cup_control,implicature,implicature,target,distractor,L,cup_implic,Y,7/23/2015,12:17:00,0.625,1,-0.4700036292457356,-0.23752603141136527,0.3746167648693195
16,1,2,4,16,teddybear_control,teddybear_foil,teddybear_control,implicature,unambiguous,distractor,target,R,teddybear_control,Y,7/23/2015,12:17:00,0.665,1,-0.4079682383262829,-0.23752603141136527,0.3746167648693195
17,1,2,4,17,bicycle_implic,bicycle_implic,bicycle_control,implicature,implicature,target,distractor,L,bicycle_implic,Y,7/23/2015,12:17:00,0.686,1,-0.3768776512562517,-0.23752603141136527,0.3746167648693195
18,1,2,4,18,flower_implic,flower_implic,flower_control,implicature,implicature,target,distractor,L,flower_implic,Y,7/23/2015,12:17:00,0.863,1,-0.14734058789870913,-0.23752603141136527,0.3746167648693195
19,1,2,4,19,cat_implic,cat_implic,cat_control,implicature,implicature,target,distractor,L,cat_implic,Y,7/23/2015,12:17:00,0.629,1,-0.4636240222816965,-0.23752603141136527,0.3746167648693195
20,1,2,4,20,car_control,car_control,car_foil,implicature,unambiguous,target,distractor,L,car_control,Y,7/23/2015,12:17:00,0.642,1,-0.44316697529217586,-0.23752603141136527,0.3746167648693195
21,1,2,4,21,lamp_implic,lamp_implic,lamp_control,implicature,implicature,target,distractor,L,lamp_implic,Y,7/23/2015,12:17:00,0.653,1,-0.42617814970570594,-0.23752603141136527,0.3746167648693195
22,1,2,4,22,banana_implic,banana_control,banana_implic,implicature,implicature,distractor,target,L,banana_control,N,7/23/2015,12:17:00,0.626,0,-0.46840490788203853,-0.23752603141136527,0.3746167648693195
23,1,2,4,23,bird_control,bird_control,bird_foil,implicature,unambiguous,target,distractor,L,bird_control,Y,7/23/2015,12:17:00,0.585,1,-0.5361434317502807,-0.23752603141136527,0.3746167648693195
24,1,2,4,24,cookie_control,cookie_control,cookie_foil,implicature,unambiguous,target,distractor,L,cookie_control,Y,7/23/2015,12:17:00,0.609,1,-0.49593701127224005,-0.23752603141136527,0.3746167648693195
25,1,2,4,25,dog_control,dog_foil,dog_control,implicature,unambiguous,distractor,target,R,dog_control,Y,7/23/2015,12:17:00,0.592,1,-0.5242486440981314,-0.23752603141136527,0.3746167648693195
26,1,2,4,26,lamp_implic,lamp_implic,lamp_control,implicature,implicature,target,distractor,L,lamp_implic,Y,7/23/2015,12:17:00,0.666,1,-0.40646560844174784,-0.23752603141136527,0.3746167648693195
27,1,2,4,27,cookie_control,cookie_foil,cookie_control,implicature,unambiguous,distractor,target,R,cookie_control,Y,7/23/2015,12:17:00,0.625,1,-0.4700036292457356,-0.23752603141136527,0.3746167648693195
28,1,2,4,28,car_implic,car_implic,car_control,implicature,implicature,target,distractor,R,car_control,N,7/23/2015,12:17:00,0.611,0,-0.49265831981054176,-0.23752603141136527,0.3746167648693195
29,1,2,4,29,cup_control,cup_control,cup_foil,implicature,unambiguous,target,distractor,L,cup_control,Y,7/23/2015,12:17:00,0.624,1,-0.47160491061270937,-0.23752603141136527,0.3746167648693195
30,1,2,4,30,bicycle_control,bicycle_foil,bicycle_control,implicature,unambiguous,distractor,target,R,bicycle_control,Y,7/23/2015,12:17:00,0.719,1,-0.3298939212610904,-0.23752603141136527,0.3746167648693195
31,1,2,4,31,teddybear_implic,teddybear_control,teddybear_implic,implicature,implicature,distractor,target,R,teddybear_implic,Y,7/23/2015,12:17:00,1.087,1,0.08342160813907236,-0.23752603141136527,0.3746167648693195
32,1,2,4,32,flower_control,flower_control,flower_foil,implicature,unambiguous,target,distractor,L,flower_control,Y,7/23/2015,12:17:00,0.706,1,-0.34814004148889505,-0.23752603141136527,0.3746167648693195
33,1,2,4,33,cat_implic,cat_control,cat_implic,implicature,implicature,distractor,target,L,cat_control,N,7/23/2015,12:17:00,0.675,0,-0.3930425881096072,-0.23752603141136527,0.3746167648693195
34,1,2,4,34,apple_control,apple_control,apple_foil,implicature,unambiguous,target,distractor,L,apple_control,Y,7/23/2015,12:17:00,0.587,1,-0.5327304591540407,-0.23752603141136527,0.3746167648693195
35,1,2,4,35,banana_implic,banana_control,banana_implic,implicature,implicature,distractor,target,L,banana_control,N,7/23/2015,12:17:00,0.688,0,-0.37396644104879345,-0.23752603141136527,0.3746167648693195
36,1,2,4,36,bird_implic,bird_implic,bird_control,implicature,implicature,target,distractor,L,bird_implic,Y,7/23/2015,12:17:00,0.625,1,-0.4700036292457356,-0.23752603141136527,0.3746167648693195
37,1,2,4,37,teddybear_implic,teddybear_control,teddybear_implic,implicature,implicature,distractor,target,L,teddybear_control,N,7/23/2015,12:17:00,0.568,0,-0.5656338602609858,-0.23752603141136527,0.3746167648693195
38,1,2,4,38,cup_control,cup_control,cup_foil,implicature,unambiguous,target,distractor,L,cup_control,Y,7/23/2015,12:17:00,0.583,1,-0.5395680926316447,-0.23752603141136527,0.3746167648693195
39,1,2,4,39,car_control,car_control,car_foil,implicature,unambiguous,target,distractor,L,car_control,Y,7/23/2015,12:17:00,0.64,1,-0.4462871026284195,-0.23752603141136527,0.3746167648693195
40,1,2,4,40,banana_control,banana_control,banana_foil,implicature,unambiguous,target,distractor,L,banana_control,Y,7/23/2015,12:17:00,0.673,1,-0.3960099493374092,-0.23752603141136527,0.3746167648693195
41,1,2,4,41,lamp_control,lamp_control,lamp_foil,implicature,unambiguous,target,distractor,L,lamp_control,Y,7/23/2015,12:17:00,0.631,1,-0.4604494164409239,-0.23752603141136527,0.3746167648693195
42,1,2,4,42,apple_control,apple_control,apple_foil,implicature,unambiguous,target,distractor,L,apple_control,Y,7/23/2015,12:17:00,0.633,1,-0.45728485683796083,-0.23752603141136527,0.3746167648693195
43,1,2,4,43,cookie_implic,cookie_implic,cookie_control,implicature,implicature,target,distractor,L,cookie_implic,Y,7/23/2015,12:17:00,0.595,1,-0.5191938734365074,-0.23752603141136527,0.3746167648693195
44,1,2,4,44,cat_implic,cat_control,cat_implic,implicature,implicature,distractor,target,L,cat_control,N,7/23/2015,12:17:00,0.588,0,-0.5310283310835102,-0.23752603141136527,0.3746167648693195
45,1,2,4,45,bird_control,bird_foil,bird_control,implicature,unambiguous,distractor,target,L,bird_foil,N,7/23/2015,12:17:00,0.591,0,-0.5259392615760389,-0.23752603141136527,0.3746167648693195
46,1,2,4,46,flower_control,flower_foil,flower_control,implicature,unambiguous,distractor,target,R,flower_control,Y,7/23/2015,12:17:00,0.967,1,-0.033556783528842754,-0.23752603141136527,0.3746167648693195
47,1,2,4,47,dog_implic,dog_implic,dog_control,implicature,implicature,target,distractor,R,dog_control,N,7/23/2015,12:17:00,0.781,0,-0.24718012914245105,-0.23752603141136527,0.3746167648693195
48,1,2,4,48,bicycle_control,bicycle_foil,bicycle_control,implicature,unambiguous,distractor,target,R,bicycle_control,Y,7/23/2015,12:17:00,0.751,1,-0.28634962721800233,-0.23752603141136527,0.3746167648693195
49,1,2,4,49,bird_implic,bird_implic,bird_control,implicature,implicature,target,distractor,L,bird_implic,Y,7/23/2015,12:17:00,0.722,1,-0.32573014008931084,-0.23752603141136527,0.3746167648693195
50,1,2,4,50,flower_implic,flower_implic,flower_control,implicature,implicature,target,distractor,L,flower_implic,Y,7/23/2015,12:17:00,0.765,1,-0.2678794451556012,-0.23752603141136527,0.3746167648693195
51,1,2,4,51,car_control,car_foil,car_control,implicature,unambiguous,distractor,target,R,car_control,Y,7/23/2015,12:17:00,0.681,1,-0.3841929728326246,-0.23752603141136527,0.3746167648693195
52,1,2,4,52,lamp_implic,lamp_implic,lamp_control,implicature,implicature,target,distractor,L,lamp_implic,Y,7/23/2015,12:17:00,0.736,1,-0.3065251602532608,-0.23752603141136527,0.3746167648693195
53,1,2,4,53,bicycle_implic,bicycle_control,bicycle_implic,implicature,implicature,distractor,target,L,bicycle_control,N,7/23/2015,12:17:00,0.786,0,-0.24079848655293046,-0.23752603141136527,0.3746167648693195
54,1,2,4,54,dog_implic,dog_control,dog_implic,implicature,implicature,distractor,target,L,dog_control,N,7/23/2015,12:17:00,0.804,0,-0.21815600980317063,-0.23752603141136527,0.3746167648693195
55,1,2,4,55,teddybear_implic,teddybear_control,teddybear_implic,implicature,implicature,distractor,target,L,teddybear_control,N,7/23/2015,12:17:00,0.649,0,-0.43232256227804705,-0.23752603141136527,0.3746167648693195
56,1,2,4,56,cookie_control,cookie_foil,cookie_control,implicature,unambiguous,distractor,target,R,cookie_control,Y,7/23/2015,12:17:00,0.698,1,-0.35953617621976464,-0.23752603141136527,0.3746167648693195
57,1,2,4,57,cat_implic,cat_control,cat_implic,implicature,implicature,distractor,target,L,cat_control,N,7/23/2015,12:17:00,0.885,0,-0.12216763397420753,-0.23752603141136527,0.3746167648693195
58,1,2,4,58,apple_control,apple_control,apple_foil,implicature,unambiguous,target,distractor,L,apple_control,Y,7/23/2015,12:17:00,0.598,1,-0.5141645250315053,-0.23752603141136527,0.3746167648693195
59,1,2,4,59,cup_implic,cup_implic,cup_control,implicature,implicature,target,distractor,L,cup_implic,Y,7/23/2015,12:17:00,0.728,1,-0.3174542307854511,-0.23752603141136527,0.3746167648693195
60,1,2,4,60,banana_control,banana_foil,banana_control,implicature,unambiguous,distractor,target,R,banana_control,Y,7/23/2015,12:17:00,0.704,1,-0.3509769228240947,-0.23752603141136527,0.3746167648693195
61,1,2,4,61,lamp_control,lamp_control,lamp_foil,implicature,unambiguous,target,distractor,L,lamp_control,Y,7/23/2015,12:17:00,0.709,1,-0.3438997524500096,-0.23752603141136527,0.3746167648693195
62,1,2,4,62,dog_implic,dog_implic,dog_control,implicature,implicature,target,distractor,L,dog_implic,Y,7/23/2015,12:17:00,0.578,1,-0.5481814103097596,-0.23752603141136527,0.3746167648693195
63,1,2,4,63,bird_control,bird_foil,bird_control,implicature,unambiguous,distractor,target,R,bird_control,Y,7/23/2015,12:17:00,0.64,1,-0.4462871026284195,-0.23752603141136527,0.3746167648693195
64,1,2,4,64,car_control,car_control,car_foil,implicature,unambiguous,target,distractor,L,car_control,Y,7/23/2015,12:17:00,0.627,1,-0.4668087383492164,-0.23752603141136527,0.3746167648693195
65,1,2,4,65,flower_implic,flower_implic,flower_control,implicature,implicature,target,distractor,L,flower_implic,Y,7/23/2015,12:17:00,0.655,1,-0.4231200433468851,-0.23752603141136527,0.3746167648693195
66,1,2,4,66,banana_control,banana_control,banana_foil,implicature,unambiguous,target,distractor,L,banana_control,Y,7/23/2015,12:17:00,0.64,1,-0.4462871026284195,-0.23752603141136527,0.3746167648693195
67,1,2,4,67,cat_implic,cat_control,cat_implic,implicature,implicature,distractor,target,L,cat_control,N,7/23/2015,12:17:00,0.556,0,-0.5869869847315546,-0.23752603141136527,0.3746167648693195
68,1,2,4,68,cup_control,cup_control,cup_foil,implicature,unambiguous,target,distractor,L,cup_control,Y,7/23/2015,12:17:00,0.496,1,-0.7011793522572096,-0.23752603141136527,0.3746167648693195
69,1,2,4,69,apple_implic,apple_control,apple_implic,implicature,implicature,distractor,target,L,apple_control,N,7/23/2015,12:17:00,0.542,0,-0.6124892775424908,-0.23752603141136527,0.3746167648693195
70,1,2,4,70,cookie_control,cookie_foil,cookie_control,implicature,unambiguous,distractor,target,R,cookie_control,Y,7/23/2015,12:17:00,0.909,1,-0.09541018480465818,-0.23752603141136527,0.3746167648693195
71,1,2,4,71,teddybear_control,teddybear_control,teddybear_foil,implicature,unambiguous,target,distractor,L,teddybear_control,Y,7/23/2015,12:17:00,0.564,1,-0.5727010274840783,-0.23752603141136527,0.3746167648693195
72,1,2,4,72,bicycle_implic,bicycle_implic,bicycle_control,implicature,implicature,target,distractor,L,bicycle_implic,Y,7/23/2015,12:17:00,0.786,1,-0.24079848655293046,-0.23752603141136527,0.3746167648693195
73,1,2,4,73,cat_implic,cat_control,cat_implic,implicature,implicature,distractor,target,L,cat_control,N,7/23/2015,12:17:00,0.64,0,-0.4462871026284195,-0.23752603141136527,0.3746167648693195
74,1,2,4,74,cup_control,cup_foil,cup_control,implicature,unambiguous,distractor,target,R,cup_control,Y,7/23/2015,12:17:00,0.64,1,-0.4462871026284195,-0.23752603141136527,0.3746167648693195
75,1,2,4,75,car_implic,car_implic,car_control,implicature,implicature,target,distractor,L,car_implic,Y,7/23/2015,12:17:00,0.672,1,-0.3974969384589874,-0.23752603141136527,0.3746167648693195
76,1,2,4,76,flower_control,flower_control,flower_foil,implicature,unambiguous,target,distractor,L,flower_control,Y,7/23/2015,12:17:00,0.705,1,-0.34955747616986843,-0.23752603141136527,0.3746167648693195
77,1,2,4,77,cookie_control,cookie_control,cookie_foil,implicature,unambiguous,target,distractor,L,cookie_control,Y,7/23/2015,12:17:00,0.638,1,-0.44941699563734716,-0.23752603141136527,0.3746167648693195
78,1,2,4,78,teddybear_implic,teddybear_implic,teddybear_control,implicature,implicature,target,distractor,R,teddybear_control,N,7/23/2015,12:17:00,0.627,0,-0.4668087383492164,-0.23752603141136527,0.3746167648693195
79,1,2,4,79,bird_implic,bird_implic,bird_control,implicature,implicature,target,distractor,L,bird_implic,Y,7/23/2015,12:17:00,0.632,1,-0.4588658848352796,-0.23752603141136527,0.3746167648693195
80,1,2,4,80,dog_control,dog_foil,dog_control,implicature,unambiguous,distractor,target,R,dog_control,Y,7/23/2015,12:17:00,0.654,1,-0.4246479275249383,-0.23752603141136527,0.3746167648693195
81,1,2,4,81,bicycle_control,bicycle_foil,bicycle_control,implicature,unambiguous,distractor,target,R,bicycle_control,Y,7/23/2015,12:17:00,0.648,1,-0.4338645826298623,-0.23752603141136527,0.3746167648693195
82,1,2,4,82,lamp_control,lamp_control,lamp_foil,implicature,unambiguous,target,distractor,L,lamp_control,Y,7/23/2015,12:17:00,0.614,1,-0.4877603508349946,-0.23752603141136527,0.3746167648693195
83,1,2,4,83,apple_implic,apple_implic,apple_control,implicature,implicature,target,distractor,L,apple_implic,Y,7/23/2015,12:17:00,0.743,1,-0.2970592342643779,-0.23752603141136527,0.3746167648693195
84,1,2,4,84,banana_control,banana_foil,banana_control,implicature,unambiguous,distractor,target,R,banana_control,Y,7/23/2015,12:17:00,0.675,1,-0.3930425881096072,-0.23752603141136527,0.3746167648693195
85,1,2,4,85,car_control,car_control,car_foil,implicature,unambiguous,target,distractor,L,car_control,Y,7/23/2015,12:17:00,0.534,1,-0.6273594400219421,-0.23752603141136527,0.3746167648693195
86,1,2,4,86,apple_implic,apple_control,apple_implic,implicature,implicature,distractor,target,L,apple_control,N,7/23/2015,12:17:00,0.607,0,-0.4992264879226388,-0.23752603141136527,0.3746167648693195
87,1,2,4,87,banana_implic,banana_implic,banana_control,implicature,implicature,target,distractor,L,banana_implic,Y,7/23/2015,12:17:00,0.546,1,-0.6051363032372319,-0.23752603141136527,0.3746167648693195
88,1,2,4,88,cat_control,cat_control,cat_foil,implicature,unambiguous,target,distractor,L,cat_control,Y,7/23/2015,12:17:00,0.5,1,-0.6931471805599453,-0.23752603141136527,0.3746167648693195
89,1,2,4,89,cookie_implic,cookie_implic,cookie_control,implicature,implicature,target,distractor,L,cookie_implic,Y,7/23/2015,12:17:00,0.556,1,-0.5869869847315546,-0.23752603141136527,0.3746167648693195
90,1,2,4,90,dog_implic,dog_implic,dog_control,implicature,implicature,target,distractor,L,dog_implic,Y,7/23/2015,12:17:00,0.563,1,-0.5744756508424468,-0.23752603141136527,0.3746167648693195
91,1,2,4,91,flower_control,flower_control,flower_foil,implicature,unambiguous,target,distractor,L,flower_control,Y,7/23/2015,12:17:00,0.645,1,-0.43850496218636453,-0.23752603141136527,0.3746167648693195
92,1,2,4,92,bird_implic,bird_implic,bird_control,implicature,implicature,target,distractor,L,bird_implic,Y,7/23/2015,12:17:00,0.622,1,-0.4748151862429576,-0.23752603141136527,0.3746167648693195
93,1,2,4,93,teddybear_implic,teddybear_control,teddybear_implic,implicature,implicature,distractor,target,L,teddybear_control,N,7/23/2015,12:17:00,0.606,0,-0.5008752929128226,-0.23752603141136527,0.3746167648693195
94,1,2,4,94,bicycle_implic,bicycle_control,bicycle_implic,implicature,implicature,distractor,target,L,bicycle_control,N,7/23/2015,12:17:00,0.499,0,-0.6951491832306184,-0.23752603141136527,0.3746167648693195
95,1,2,4,95,lamp_implic,lamp_control,lamp_implic,implicature,implicature,distractor,target,R,lamp_implic,Y,7/23/2015,12:17:00,0.598,1,-0.5141645250315053,-0.23752603141136527,0.3746167648693195
96,1,2,4,96,cup_control,cup_foil,cup_control,implicature,unambiguous,distractor,target,R,cup_control,Y,7/23/2015,12:17:00,0.687,1,-0.37542098675978763,-0.23752603141136527,0.3746167648693195
97,1,2,4,97,teddybear_control,teddybear_control,teddybear_foil,implicature,unambiguous,target,distractor,L,teddybear_control,Y,7/23/2015,12:17:00,0.607,1,-0.4992264879226388,-0.23752603141136527,0.3746167648693195
98,1,2,4,98,cup_implic,cup_implic,cup_control,implicature,implicature,target,distractor,L,cup_implic,Y,7/23/2015,12:17:00,0.564,1,-0.5727010274840783,-0.23752603141136527,0.3746167648693195
99,1,2,4,99,bird_control,bird_foil,bird_control,implicature,unambiguous,distractor,target,R,bird_control,Y,7/23/2015,12:17:00,0.655,1,-0.4231200433468851,-0.23752603141136527,0.3746167648693195
100,1,2,4,100,dog_implic,dog_control,dog_implic,implicature,implicature,distractor,target,L,dog_control,N,7/23/2015,12:17:00,0.658,0,-0.4185503476568198,-0.23752603141136527,0.3746167648693195
101,1,2,4,101,bicycle_implic,bicycle_control,bicycle_implic,implicature,implicature,distractor,target,L,bicycle_control,N,7/23/2015,12:17:00,0.564,0,-0.5727010274840783,-0.23752603141136527,0.3746167648693195
102,1,2,4,102,cat_implic,cat_control,cat_implic,implicature,implicature,distractor,target,L,cat_control,N,7/23/2015,12:17:00,0.532,0,-0.6311117896404926,-0.23752603141136527,0.3746167648693195
103,1,2,4,103,car_implic,car_implic,car_control,implicature,implicature,target,distractor,L,car_implic,Y,7/23/2015,12:17:00,0.566,1,-0.5691612007789542,-0.23752603141136527,0.3746167648693195
104,1,2,4,104,cookie_implic,cookie_implic,cookie_control,implicature,implicature,target,distractor,L,cookie_implic,Y,7/23/2015,12:17:00,0.485,1,-0.7236063880446539,-0.23752603141136527,0.3746167648693195
105,1,2,4,105,banana_implic,banana_control,banana_implic,implicature,implicature,distractor,target,L,banana_control,N,7/23/2015,12:17:00,1.054,0,0.05259245011917063,-0.23752603141136527,0.3746167648693195
106,1,2,4,106,lamp_control,lamp_foil,lamp_control,implicature,unambiguous,distractor,target,R,lamp_control,Y,7/23/2015,12:17:00,0.766,1,-0.26657310924154576,-0.23752603141136527,0.3746167648693195
107,1,2,4,107,flower_implic,flower_implic,flower_control,implicature,implicature,target,distractor,L,flower_implic,Y,7/23/2015,12:17:00,0.576,1,-0.5516476182862459,-0.23752603141136527,0.3746167648693195
108,1,2,4,108,apple_control,apple_control,apple_foil,implicature,unambiguous,target,distractor,L,apple_control,Y,7/23/2015,12:17:00,0.588,1,-0.5310283310835102,-0.23752603141136527,0.3746167648693195
109,1,2,4,109,bicycle_control,bicycle_foil,bicycle_control,implicature,unambiguous,distractor,target,R,bicycle_control,Y,7/23/2015,12:17:00,0.615,1,-0.4861330111756192,-0.23752603141136527,0.3746167648693195
110,1,2,4,110,cup_control,cup_foil,cup_control,implicature,unambiguous,distractor,target,R,cup_control,Y,7/23/2015,12:17:00,0.647,1,-0.43540898448123644,-0.23752603141136527,0.3746167648693195
111,1,2,4,111,banana_control,banana_foil,banana_control,implicature,unambiguous,distractor,target,R,banana_control,Y,7/23/2015,12:17:00,0.648,1,-0.4338645826298623,-0.23752603141136527,0.3746167648693195
112,1,2,4,112,bird_control,bird_foil,bird_control,implicature,unambiguous,distractor,target,L,bird_foil,N,7/23/2015,12:17:00,0.504,0,-0.6851790109107684,-0.23752603141136527,0.3746167648693195
113,1,2,4,113,cookie_implic,cookie_implic,cookie_control,implicature,implicature,target,distractor,L,cookie_implic,Y,7/23/2015,12:17:00,0.672,1,-0.3974969384589874,-0.23752603141136527,0.3746167648693195
114,1,2,4,114,lamp_control,lamp_control,lamp_foil,implicature,unambiguous,target,distractor,L,lamp_control,Y,7/23/2015,12:17:00,0.572,1,-0.5586162876023393,-0.23752603141136527,0.3746167648693195
115,1,2,4,115,teddybear_implic,teddybear_control,teddybear_implic,implicature,implicature,distractor,target,L,teddybear_control,N,7/23/2015,12:17:00,0.633,0,-0.45728485683796083,-0.23752603141136527,0.3746167648693195
116,1,2,4,116,car_implic,car_implic,car_control,implicature,implicature,target,distractor,R,car_control,N,7/23/2015,12:17:00,0.544,0,-0.6088060321261943,-0.23752603141136527,0.3746167648693195
117,1,2,4,117,apple_implic,apple_implic,apple_control,implicature,implicature,target,distractor,R,apple_control,N,7/23/2015,12:17:00,0.595,0,-0.5191938734365074,-0.23752603141136527,0.3746167648693195
118,1,2,4,118,cat_control,cat_control,cat_foil,implicature,unambiguous,target,distractor,L,cat_control,Y,7/23/2015,12:17:00,0.572,1,-0.5586162876023393,-0.23752603141136527,0.3746167648693195
119,1,2,4,119,dog_implic,dog_implic,dog_control,implicature,implicature,target,distractor,L,dog_implic,Y,7/23/2015,12:17:00,0.602,1,-0.507497833673316,-0.23752603141136527,0.3746167648693195
120,1,2,4,120,flower_implic,flower_implic,flower_control,implicature,implicature,target,distractor,L,flower_implic,Y,7/23/2015,12:17:00,0.572,1,-0.5586162876023393,-0.23752603141136527,0.3746167648693195
121,1,2,4,1,cup_pos,cup_pos,cup_inhib,inhibition,control,target,distractor,L,cup_pos,Y,7/23/2015,12:17:00,0.629,1,-0.4636240222816965,-0.23752603141136527,0.3746167648693195
122,1,2,4,2,cup_pos,cup_inhib,cup_pos,inhibition,control,distractor,target,L,cup_inhib,N,7/23/2015,12:17:00,0.527,0,-0.6405547304407747,-0.23752603141136527,0.3746167648693195
123,1,2,4,3,cup_pos,cup_pos,cup_inhib,inhibition,control,target,distractor,L,cup_pos,Y,7/23/2015,12:17:00,0.421,1,-0.8651224452997557,-0.23752603141136527,0.3746167648693195
124,1,2,4,4,cup_pos,cup_pos,cup_inhib,inhibition,control,target,distractor,L,cup_pos,Y,7/23/2015,12:17:00,0.392,1,-0.9364934391916745,-0.23752603141136527,0.3746167648693195
125,1,2,4,5,cup_pos,cup_pos,cup_inhib,inhibition,control,target,distractor,L,cup_pos,Y,7/23/2015,12:17:00,0.38,1,-0.9675840262617056,-0.23752603141136527,0.3746167648693195
126,1,2,4,6,cup_inhib,cup_inhib,cup_pos,inhibition,inhib,target,distractor,R,cup_pos,N,7/23/2015,12:17:00,0.388,0,-0.9467499393588635,-0.23752603141136527,0.3746167648693195
127,1,2,4,7,bird_pos,bird_pos,bird_inhib,inhibition,control,target,distractor,L,bird_pos,Y,7/23/2015,12:17:00,0.75,1,-0.2876820724517809,-0.23752603141136527,0.3746167648693195
128,1,2,4,8,bird_pos,bird_pos,bird_inhib,inhibition,control,target,distractor,L,bird_pos,Y,7/23/2015,12:17:00,0.691,1,-0.36961545521446726,-0.23752603141136527,0.3746167648693195
129,1,2,4,9,bird_pos,bird_pos,bird_inhib,inhibition,control,target,distractor,L,bird_pos,Y,7/23/2015,12:17:00,0.404,1,-0.9063404010209869,-0.23752603141136527,0.3746167648693195
130,1,2,4,10,bird_pos,bird_inhib,bird_pos,inhibition,control,distractor,target,R,bird_pos,Y,7/23/2015,12:17:00,0.586,1,-0.5344354894051245,-0.23752603141136527,0.3746167648693195
131,1,2,4,11,bird_pos,bird_pos,bird_inhib,inhibition,control,target,distractor,L,bird_pos,Y,7/23/2015,12:17:00,0.375,1,-0.9808292530117262,-0.23752603141136527,0.3746167648693195
132,1,2,4,12,bird_pos,bird_inhib,bird_pos,inhibition,control,distractor,target,R,bird_pos,Y,7/23/2015,12:17:00,0.644,1,-0.4400565528777834,-0.23752603141136527,0.3746167648693195
133,1,2,4,13,bird_inhib,bird_inhib,bird_pos,inhibition,inhib,target,distractor,L,bird_inhib,Y,7/23/2015,12:17:00,0.499,1,-0.6951491832306184,-0.23752603141136527,0.3746167648693195
134,1,2,4,14,lamp_pos,lamp_pos,lamp_inhib,inhibition,control,target,distractor,R,lamp_inhib,N,7/23/2015,12:17:00,0.56,0,-0.579818495252942,-0.23752603141136527,0.3746167648693195
135,1,2,4,15,lamp_pos,lamp_pos,lamp_inhib,inhibition,control,target,distractor,L,lamp_pos,Y,7/23/2015,12:17:00,0.464,1,-0.7678707267558817,-0.23752603141136527,0.3746167648693195
136,1,2,4,16,lamp_pos,lamp_pos,lamp_inhib,inhibition,control,target,distractor,L,lamp_pos,Y,7/23/2015,12:17:00,0.412,1,-0.8867319296326107,-0.23752603141136527,0.3746167648693195
137,1,2,4,17,lamp_pos,lamp_inhib,lamp_pos,inhibition,control,distractor,target,R,lamp_pos,Y,7/23/2015,12:17:00,0.443,1,-0.8141855089370014,-0.23752603141136527,0.3746167648693195
138,1,2,4,18,lamp_pos,lamp_inhib,lamp_pos,inhibition,control,distractor,target,R,lamp_pos,Y,7/23/2015,12:17:00,0.456,1,-0.7852624694677509,-0.23752603141136527,0.3746167648693195
139,1,2,4,19,lamp_pos,lamp_inhib,lamp_pos,inhibition,control,distractor,target,R,lamp_pos,Y,7/23/2015,12:17:00,0.428,1,-0.8486320834003402,-0.23752603141136527,0.3746167648693195
140,1,2,4,20,lamp_inhib,lamp_inhib,lamp_pos,inhibition,inhib,target,distractor,L,lamp_inhib,Y,7/23/2015,12:17:00,0.469,1,-0.7571525105358577,-0.23752603141136527,0.3746167648693195
141,1,2,4,21,cookie_pos,cookie_inhib,cookie_pos,inhibition,control,distractor,target,L,cookie_inhib,N,7/23/2015,12:17:00,0.647,0,-0.43540898448123644,-0.23752603141136527,0.3746167648693195
142,1,2,4,22,cookie_pos,cookie_inhib,cookie_pos,inhibition,control,distractor,target,R,cookie_pos,Y,7/23/2015,12:17:00,0.462,1,-0.7721903879003982,-0.23752603141136527,0.3746167648693195
143,1,2,4,23,cookie_pos,cookie_pos,cookie_inhib,inhibition,control,target,distractor,L,cookie_pos,Y,7/23/2015,12:17:00,0.453,1,-0.791863153499103,-0.23752603141136527,0.3746167648693195
144,1,2,4,24,cookie_pos,cookie_inhib,cookie_pos,inhibition,control,distractor,target,R,cookie_pos,Y,7/23/2015,12:17:00,0.38,1,-0.9675840262617056,-0.23752603141136527,0.3746167648693195
145,1,2,4,25,cookie_pos,cookie_pos,cookie_inhib,inhibition,control,target,distractor,L,cookie_pos,Y,7/23/2015,12:17:00,0.407,1,-0.8989420935395421,-0.23752603141136527,0.3746167648693195
146,1,2,4,26,cookie_inhib,cookie_inhib,cookie_pos,inhibition,inhib,target,distractor,L,cookie_inhib,Y,7/23/2015,12:17:00,0.563,1,-0.5744756508424468,-0.23752603141136527,0.3746167648693195
147,1,2,4,27,flower_pos,flower_pos,flower_inhib,inhibition,control,target,distractor,L,flower_pos,Y,7/23/2015,12:17:00,0.72,1,-0.3285040669720361,-0.23752603141136527,0.3746167648693195
148,1,2,4,28,flower_pos,flower_inhib,flower_pos,inhibition,control,distractor,target,R,flower_pos,Y,7/23/2015,12:17:00,0.642,1,-0.44316697529217586,-0.23752603141136527,0.3746167648693195
149,1,2,4,29,flower_pos,flower_pos,flower_inhib,inhibition,control,target,distractor,L,flower_pos,Y,7/23/2015,12:17:00,0.381,1,-0.9649559038554361,-0.23752603141136527,0.3746167648693195
150,1,2,4,30,flower_pos,flower_inhib,flower_pos,inhibition,control,distractor,target,R,flower_pos,Y,7/23/2015,12:17:00,0.447,1,-0.8051966843685682,-0.23752603141136527,0.3746167648693195
151,1,2,4,31,flower_pos,flower_pos,flower_inhib,inhibition,control,target,distractor,L,flower_pos,Y,7/23/2015,12:17:00,0.442,1,-0.816445396904439,-0.23752603141136527,0.3746167648693195
152,1,2,4,32,flower_pos,flower_inhib,flower_pos,inhibition,control,distractor,target,R,flower_pos,Y,7/23/2015,12:17:00,0.435,1,-0.8324092478934529,-0.23752603141136527,0.3746167648693195
153,1,2,4,33,flower_inhib,flower_pos,flower_inhib,inhibition,inhib,distractor,target,R,flower_inhib,Y,7/23/2015,12:17:00,0.618,1,-0.4812668215244463,-0.23752603141136527,0.3746167648693195
154,1,2,4,34,cat_pos,cat_pos,cat_inhib,inhibition,control,target,distractor,L,cat_pos,Y,7/23/2015,12:17:00,0.744,1,-0.2957142441490452,-0.23752603141136527,0.3746167648693195
155,1,2,4,35,cat_pos,cat_inhib,cat_pos,inhibition,control,distractor,target,L,cat_inhib,N,7/23/2015,12:17:00,0.398,0,-0.9213032736976993,-0.23752603141136527,0.3746167648693195
156,1,2,4,36,cat_pos,cat_pos,cat_inhib,inhibition,control,target,distractor,L,cat_pos,Y,7/23/2015,12:17:00,0.398,1,-0.9213032736976993,-0.23752603141136527,0.3746167648693195
157,1,2,4,37,cat_pos,cat_pos,cat_inhib,inhibition,control,target,distractor,L,cat_pos,Y,7/23/2015,12:17:00,0.408,1,-0.8964881045779755,-0.23752603141136527,0.3746167648693195
158,1,2,4,38,cat_pos,cat_inhib,cat_pos,inhibition,control,distractor,target,R,cat_pos,Y,7/23/2015,12:17:00,0.392,1,-0.9364934391916745,-0.23752603141136527,0.3746167648693195
159,1,2,4,39,cat_inhib,cat_inhib,cat_pos,inhibition,inhib,target,distractor,L,cat_inhib,Y,7/23/2015,12:17:00,0.677,1,-0.390084006069862,-0.23752603141136527,0.3746167648693195
160,1,2,4,40,bicycle_pos,bicycle_pos,bicycle_inhib,inhibition,control,target,distractor,L,bicycle_pos,Y,7/23/2015,12:17:00,0.638,1,-0.44941699563734716,-0.23752603141136527,0.3746167648693195
161,1,2,4,41,bicycle_pos,bicycle_pos,bicycle_inhib,inhibition,control,target,distractor,L,bicycle_pos,Y,7/23/2015,12:17:00,0.363,1,-1.0133524447172864,-0.23752603141136527,0.3746167648693195
162,1,2,4,42,bicycle_pos,bicycle_pos,bicycle_inhib,inhibition,control,target,distractor,L,bicycle_pos,Y,7/23/2015,12:17:00,0.347,1,-1.058430499035278,-0.23752603141136527,0.3746167648693195
163,1,2,4,43,bicycle_pos,bicycle_pos,bicycle_inhib,inhibition,control,target,distractor,L,bicycle_pos,Y,7/23/2015,12:17:00,0.311,1,-1.1679623668029029,-0.23752603141136527,0.3746167648693195
164,1,2,4,44,bicycle_pos,bicycle_pos,bicycle_inhib,inhibition,control,target,distractor,L,bicycle_pos,Y,7/23/2015,12:17:00,0.327,1,-1.1177951080848836,-0.23752603141136527,0.3746167648693195
165,1,2,4,45,bicycle_inhib,bicycle_inhib,bicycle_pos,inhibition,inhib,target,distractor,R,bicycle_pos,N,7/23/2015,12:17:00,0.438,0,-0.8255363686056909,-0.23752603141136527,0.3746167648693195
166,1,2,4,46,banana_pos,banana_pos,banana_inhib,inhibition,control,target,distractor,L,banana_pos,Y,7/23/2015,12:17:00,1.555,1,0.4414755456311974,-0.23752603141136527,0.3746167648693195
167,1,2,4,47,banana_pos,banana_pos,banana_inhib,inhibition,control,target,distractor,L,banana_pos,Y,7/23/2015,12:17:00,0.436,1,-0.8301130356331028,-0.23752603141136527,0.3746167648693195
168,1,2,4,48,banana_pos,banana_inhib,banana_pos,inhibition,control,distractor,target,R,banana_pos,Y,7/23/2015,12:17:00,0.452,1,-0.7940730991499059,-0.23752603141136527,0.3746167648693195
169,1,2,4,49,banana_pos,banana_pos,banana_inhib,inhibition,control,target,distractor,L,banana_pos,Y,7/23/2015,12:17:00,0.368,1,-0.9996723408132061,-0.23752603141136527,0.3746167648693195
170,1,2,4,50,banana_pos,banana_inhib,banana_pos,inhibition,control,distractor,target,R,banana_pos,Y,7/23/2015,12:17:00,0.404,1,-0.9063404010209869,-0.23752603141136527,0.3746167648693195
171,1,2,4,51,banana_inhib,banana_pos,banana_inhib,inhibition,inhib,distractor,target,L,banana_pos,N,7/23/2015,12:17:00,0.45,0,-0.7985076962177716,-0.23752603141136527,0.3746167648693195
172,1,2,4,52,teddybear_pos,teddybear_inhib,teddybear_pos,inhibition,control,distractor,target,R,teddybear_pos,Y,7/23/2015,12:17:00,0.871,1,-0.13811330212963427,-0.23752603141136527,0.3746167648693195
173,1,2,4,53,teddybear_pos,teddybear_inhib,teddybear_pos,inhibition,control,distractor,target,R,teddybear_pos,Y,7/23/2015,12:17:00,0.412,1,-0.8867319296326107,-0.23752603141136527,0.3746167648693195
174,1,2,4,54,teddybear_pos,teddybear_inhib,teddybear_pos,inhibition,control,distractor,target,R,teddybear_pos,Y,7/23/2015,12:17:00,0.404,1,-0.9063404010209869,-0.23752603141136527,0.3746167648693195
175,1,2,4,55,teddybear_pos,teddybear_pos,teddybear_inhib,inhibition,control,target,distractor,L,teddybear_pos,Y,7/23/2015,12:17:00,0.427,1,-0.8509712657535126,-0.23752603141136527,0.3746167648693195
176,1,2,4,56,teddybear_pos,teddybear_pos,teddybear_inhib,inhibition,control,target,distractor,L,teddybear_pos,Y,7/23/2015,12:17:00,0.495,1,-0.7031975164134467,-0.23752603141136527,0.3746167648693195
177,1,2,4,57,teddybear_pos,teddybear_pos,teddybear_inhib,inhibition,control,target,distractor,L,teddybear_pos,Y,7/23/2015,12:17:00,0.521,1,-0.6520052372287701,-0.23752603141136527,0.3746167648693195
178,1,2,4,58,teddybear_inhib,teddybear_inhib,teddybear_pos,inhibition,inhib,target,distractor,R,teddybear_pos,N,7/23/2015,12:17:00,0.603,0,-0.5058380822549516,-0.23752603141136527,0.3746167648693195
179,1,2,4,59,dog_pos,dog_inhib,dog_pos,inhibition,control,distractor,target,R,dog_pos,Y,7/23/2015,12:17:00,1.841,1,0.6103089022509408,-0.23752603141136527,0.3746167648693195
180,1,2,4,60,dog_pos,dog_pos,dog_inhib,inhibition,control,target,distractor,L,dog_pos,Y,7/23/2015,12:17:00,0.466,1,-0.7635696448564911,-0.23752603141136527,0.3746167648693195
181,1,2,4,61,dog_pos,dog_inhib,dog_pos,inhibition,control,distractor,target,R,dog_pos,Y,7/23/2015,12:17:00,0.419,1,-0.8698843590599994,-0.23752603141136527,0.3746167648693195
182,1,2,4,62,dog_pos,dog_inhib,dog_pos,inhibition,control,distractor,target,R,dog_pos,Y,7/23/2015,12:17:00,0.451,1,-0.7962879394794586,-0.23752603141136527,0.3746167648693195
183,1,2,4,63,dog_pos,dog_pos,dog_inhib,inhibition,control,target,distractor,L,dog_pos,Y,7/23/2015,12:17:00,0.428,1,-0.8486320834003402,-0.23752603141136527,0.3746167648693195
184,1,2,4,64,dog_pos,dog_pos,dog_inhib,inhibition,control,target,distractor,L,dog_pos,Y,7/23/2015,12:17:00,0.445,1,-0.8096809968158968,-0.23752603141136527,0.3746167648693195
185,1,2,4,65,dog_inhib,dog_pos,dog_inhib,inhibition,inhib,distractor,target,R,dog_inhib,Y,7/23/2015,12:17:00,0.769,1,-0.26266430947649305,-0.23752603141136527,0.3746167648693195
186,1,2,4,66,car_pos,car_inhib,car_pos,inhibition,control,distractor,target,R,car_pos,Y,7/23/2015,12:17:00,0.826,1,-0.19116050546115904,-0.23752603141136527,0.3746167648693195
187,1,2,4,67,car_pos,car_inhib,car_pos,inhibition,control,distractor,target,R,car_pos,Y,7/23/2015,12:17:00,0.585,1,-0.5361434317502807,-0.23752603141136527,0.3746167648693195
188,1,2,4,68,car_pos,car_inhib,car_pos,inhibition,control,distractor,target,R,car_pos,Y,7/23/2015,12:17:00,0.364,1,-1.0106014113453965,-0.23752603141136527,0.3746167648693195
189,1,2,4,69,car_pos,car_pos,car_inhib,inhibition,control,target,distractor,L,car_pos,Y,7/23/2015,12:17:00,0.455,1,-0.7874578600311866,-0.23752603141136527,0.3746167648693195
190,1,2,4,70,car_pos,car_pos,car_inhib,inhibition,control,target,distractor,L,car_pos,Y,7/23/2015,12:17:00,0.456,1,-0.7852624694677509,-0.23752603141136527,0.3746167648693195
191,1,2,4,71,car_pos,car_inhib,car_pos,inhibition,control,distractor,target,R,car_pos,Y,7/23/2015,12:17:00,0.432,1,-0.8393296907380268,-0.23752603141136527,0.3746167648693195
192,1,2,4,72,car_inhib,car_inhib,car_pos,inhibition,inhib,target,distractor,L,car_inhib,Y,7/23/2015,12:17:00,0.943,1,-0.05868899634867961,-0.23752603141136527,0.3746167648693195
193,1,2,4,73,apple_pos,apple_pos,apple_inhib,inhibition,control,target,distractor,L,apple_pos,Y,7/23/2015,12:17:00,0.848,1,-0.164874643190234,-0.23752603141136527,0.3746167648693195
194,1,2,4,74,apple_pos,apple_pos,apple_inhib,inhibition,control,target,distractor,L,apple_pos,Y,7/23/2015,12:17:00,0.353,1,-1.0412872220488403,-0.23752603141136527,0.3746167648693195
195,1,2,4,75,apple_pos,apple_inhib,apple_pos,inhibition,control,distractor,target,R,apple_pos,Y,7/23/2015,12:17:00,0.411,1,-0.8891620644859025,-0.23752603141136527,0.3746167648693195
196,1,2,4,76,apple_pos,apple_pos,apple_inhib,inhibition,control,target,distractor,L,apple_pos,Y,7/23/2015,12:17:00,0.36,1,-1.0216512475319814,-0.23752603141136527,0.3746167648693195
197,1,2,4,77,apple_pos,apple_pos,apple_inhib,inhibition,control,target,distractor,L,apple_pos,Y,7/23/2015,12:17:00,0.382,1,-0.9623346703755619,-0.23752603141136527,0.3746167648693195
198,1,2,4,78,apple_inhib,apple_inhib,apple_pos,inhibition,inhib,target,distractor,L,apple_inhib,Y,7/23/2015,12:17:00,0.721,1,-0.327116141697188,-0.23752603141136527,0.3746167648693195
199,1,2,4,79,car_pos,car_inhib,car_pos,inhibition,control,distractor,target,R,car_pos,Y,7/23/2015,12:17:00,0.6,1,-0.5108256237659907,-0.23752603141136527,0.3746167648693195
200,1,2,4,80,car_pos,car_pos,car_inhib,inhibition,control,target,distractor,L,car_pos,Y,7/23/2015,12:17:00,0.329,1,-1.1116975282167652,-0.23752603141136527,0.3746167648693195
201,1,2,4,81,car_pos,car_inhib,car_pos,inhibition,control,distractor,target,R,car_pos,Y,7/23/2015,12:17:00,0.411,1,-0.8891620644859025,-0.23752603141136527,0.3746167648693195
202,1,2,4,82,car_pos,car_pos,car_inhib,inhibition,control,target,distractor,L,car_pos,Y,7/23/2015,12:17:00,0.326,1,-1.1208578976154293,-0.23752603141136527,0.3746167648693195
203,1,2,4,83,car_pos,car_inhib,car_pos,inhibition,control,distractor,target,R,car_pos,Y,7/23/2015,12:17:00,0.345,1,-1.0642108619507773,-0.23752603141136527,0.3746167648693195
204,1,2,4,84,car_pos,car_inhib,car_pos,inhibition,control,distractor,target,L,car_inhib,N,7/23/2015,12:17:00,0.356,0,-1.0328245481301066,-0.23752603141136527,0.3746167648693195
205,1,2,4,85,car_inhib,car_pos,car_inhib,inhibition,inhib,distractor,target,R,car_inhib,Y,7/23/2015,12:17:00,0.945,1,-0.05657035148839435,-0.23752603141136527,0.3746167648693195
206,1,2,4,86,bird_pos,bird_inhib,bird_pos,inhibition,control,distractor,target,R,bird_pos,Y,7/23/2015,12:17:00,0.856,1,-0.15548490284039498,-0.23752603141136527,0.3746167648693195
207,1,2,4,87,bird_pos,bird_pos,bird_inhib,inhibition,control,target,distractor,L,bird_pos,Y,7/23/2015,12:17:00,0.368,1,-0.9996723408132061,-0.23752603141136527,0.3746167648693195
208,1,2,4,88,bird_pos,bird_pos,bird_inhib,inhibition,control,target,distractor,L,bird_pos,Y,7/23/2015,12:17:00,0.382,1,-0.9623346703755619,-0.23752603141136527,0.3746167648693195
209,1,2,4,89,bird_pos,bird_inhib,bird_pos,inhibition,control,distractor,target,R,bird_pos,Y,7/23/2015,12:17:00,0.391,1,-0.9390477189967712,-0.23752603141136527,0.3746167648693195
210,1,2,4,90,bird_pos,bird_inhib,bird_pos,inhibition,control,distractor,target,R,bird_pos,Y,7/23/2015,12:17:00,0.439,1,-0.8232558659069656,-0.23752603141136527,0.3746167648693195
211,1,2,4,91,bird_inhib,bird_inhib,bird_pos,inhibition,inhib,target,distractor,R,bird_pos,N,7/23/2015,12:17:00,0.512,0,-0.6694306539426292,-0.23752603141136527,0.3746167648693195
212,1,2,4,92,dog_pos,dog_inhib,dog_pos,inhibition,control,distractor,target,R,dog_pos,Y,7/23/2015,12:17:00,0.674,1,-0.39452516806982996,-0.23752603141136527,0.3746167648693195
213,1,2,4,93,dog_pos,dog_pos,dog_inhib,inhibition,control,target,distractor,L,dog_pos,Y,7/23/2015,12:17:00,0.397,1,-0.9238189982949466,-0.23752603141136527,0.3746167648693195
214,1,2,4,94,dog_pos,dog_pos,dog_inhib,inhibition,control,target,distractor,L,dog_pos,Y,7/23/2015,12:17:00,0.42,1,-0.8675005677047231,-0.23752603141136527,0.3746167648693195
215,1,2,4,95,dog_pos,dog_inhib,dog_pos,inhibition,control,distractor,target,R,dog_pos,Y,7/23/2015,12:17:00,0.395,1,-0.9288695140810151,-0.23752603141136527,0.3746167648693195
216,1,2,4,96,dog_pos,dog_pos,dog_inhib,inhibition,control,target,distractor,L,dog_pos,Y,7/23/2015,12:17:00,0.469,1,-0.7571525105358577,-0.23752603141136527,0.3746167648693195
217,1,2,4,97,dog_pos,dog_inhib,dog_pos,inhibition,control,distractor,target,L,dog_inhib,N,7/23/2015,12:17:00,0.413,0,-0.8843076860211043,-0.23752603141136527,0.3746167648693195
218,1,2,4,98,dog_inhib,dog_pos,dog_inhib,inhibition,inhib,distractor,target,R,dog_inhib,Y,7/23/2015,12:17:00,0.783,1,-0.2446225829913339,-0.23752603141136527,0.3746167648693195
219,1,2,4,99,apple_pos,apple_pos,apple_inhib,inhibition,control,target,distractor,L,apple_pos,Y,7/23/2015,12:17:00,0.825,1,-0.19237189264745613,-0.23752603141136527,0.3746167648693195
220,1,2,4,100,apple_pos,apple_inhib,apple_pos,inhibition,control,distractor,target,R,apple_pos,Y,7/23/2015,12:17:00,0.422,1,-0.8627499649461253,-0.23752603141136527,0.3746167648693195
221,1,2,4,101,apple_pos,apple_inhib,apple_pos,inhibition,control,distractor,target,R,apple_pos,Y,7/23/2015,12:17:00,0.432,1,-0.8393296907380268,-0.23752603141136527,0.3746167648693195
222,1,2,4,102,apple_pos,apple_pos,apple_inhib,inhibition,control,target,distractor,L,apple_pos,Y,7/23/2015,12:17:00,0.585,1,-0.5361434317502807,-0.23752603141136527,0.3746167648693195
223,1,2,4,103,apple_pos,apple_pos,apple_inhib,inhibition,control,target,distractor,L,apple_pos,Y,7/23/2015,12:17:00,0.414,1,-0.8818893051568227,-0.23752603141136527,0.3746167648693195
224,1,2,4,104,apple_inhib,apple_pos,apple_inhib,inhibition,inhib,distractor,target,R,apple_inhib,Y,7/23/2015,12:17:00,0.647,1,-0.43540898448123644,-0.23752603141136527,0.3746167648693195
225,1,2,4,105,flower_pos,flower_pos,flower_inhib,inhibition,control,target,distractor,L,flower_pos,Y,7/23/2015,12:17:00,0.554,1,-0.5905905922348531,-0.23752603141136527,0.3746167648693195
226,1,2,4,106,flower_pos,flower_pos,flower_inhib,inhibition,control,target,distractor,L,flower_pos,Y,7/23/2015,12:17:00,0.344,1,-1.0671136216087387,-0.23752603141136527,0.3746167648693195
227,1,2,4,107,flower_pos,flower_inhib,flower_pos,inhibition,control,distractor,target,R,flower_pos,Y,7/23/2015,12:17:00,0.403,1,-0.908818717035454,-0.23752603141136527,0.3746167648693195
228,1,2,4,108,flower_pos,flower_pos,flower_inhib,inhibition,control,target,distractor,L,flower_pos,Y,7/23/2015,12:17:00,0.398,1,-0.9213032736976993,-0.23752603141136527,0.3746167648693195
229,1,2,4,109,flower_pos,flower_inhib,flower_pos,inhibition,control,distractor,target,R,flower_pos,Y,7/23/2015,12:17:00,0.42,1,-0.8675005677047231,-0.23752603141136527,0.3746167648693195
230,1,2,4,110,flower_pos,flower_pos,flower_inhib,inhibition,control,target,distractor,L,flower_pos,Y,7/23/2015,12:17:00,0.386,1,-0.9519179095173061,-0.23752603141136527,0.3746167648693195
231,1,2,4,111,flower_inhib,flower_inhib,flower_pos,inhibition,inhib,target,distractor,L,flower_inhib,Y,7/23/2015,12:17:00,0.566,1,-0.5691612007789542,-0.23752603141136527,0.3746167648693195
232,1,2,4,112,teddybear_pos,teddybear_pos,teddybear_inhib,inhibition,control,target,distractor,L,teddybear_pos,Y,7/23/2015,12:17:00,0.422,1,-0.8627499649461253,-0.23752603141136527,0.3746167648693195
233,1,2,4,113,teddybear_pos,teddybear_inhib,teddybear_pos,inhibition,control,distractor,target,R,teddybear_pos,Y,7/23/2015,12:17:00,0.429,1,-0.8462983600541201,-0.23752603141136527,0.3746167648693195
234,1,2,4,114,teddybear_pos,teddybear_inhib,teddybear_pos,inhibition,control,distractor,target,R,teddybear_pos,Y,7/23/2015,12:17:00,0.507,1,-0.6792442753909539,-0.23752603141136527,0.3746167648693195
235,1,2,4,115,teddybear_pos,teddybear_pos,teddybear_inhib,inhibition,control,target,distractor,L,teddybear_pos,Y,7/23/2015,12:17:00,0.414,1,-0.8818893051568227,-0.23752603141136527,0.3746167648693195
236,1,2,4,116,teddybear_pos,teddybear_pos,teddybear_inhib,inhibition,control,target,distractor,L,teddybear_pos,Y,7/23/2015,12:17:00,0.395,1,-0.9288695140810151,-0.23752603141136527,0.3746167648693195
237,1,2,4,117,teddybear_pos,teddybear_pos,teddybear_inhib,inhibition,control,target,distractor,L,teddybear_pos,Y,7/23/2015,12:17:00,0.46,1,-0.7765287894989963,-0.23752603141136527,0.3746167648693195
238,1,2,4,118,teddybear_inhib,teddybear_inhib,teddybear_pos,inhibition,inhib,target,distractor,L,teddybear_inhib,Y,7/23/2015,12:17:00,0.64,1,-0.4462871026284195,-0.23752603141136527,0.3746167648693195
239,1,2,4,119,cat_pos,cat_pos,cat_inhib,inhibition,control,target,distractor,L,cat_pos,Y,7/23/2015,12:17:00,0.711,1,-0.3410828491788962,-0.23752603141136527,0.3746167648693195
240,1,2,4,120,cat_pos,cat_pos,cat_inhib,inhibition,control,target,distractor,L,cat_pos,Y,7/23/2015,12:17:00,0.373,1,-0.9861768593383216,-0.23752603141136527,0.3746167648693195
241,1,2,4,121,cat_pos,cat_inhib,cat_pos,inhibition,control,distractor,target,R,cat_pos,Y,7/23/2015,12:17:00,0.425,1,-0.8556661100577202,-0.23752603141136527,0.3746167648693195
242,1,2,4,122,cat_pos,cat_inhib,cat_pos,inhibition,control,distractor,target,L,cat_inhib,N,7/23/2015,12:17:00,0.307,0,-1.18090753139494,-0.23752603141136527,0.3746167648693195
243,1,2,4,123,cat_pos,cat_inhib,cat_pos,inhibition,control,distractor,target,R,cat_pos,Y,7/23/2015,12:17:00,0.362,1,-1.016111067156366,-0.23752603141136527,0.3746167648693195
244,1,2,4,124,cat_inhib,cat_pos,cat_inhib,inhibition,inhib,distractor,target,L,cat_pos,N,7/23/2015,12:17:00,0.458,0,-0.780886094867952,-0.23752603141136527,0.3746167648693195
245,1,2,4,125,lamp_pos,lamp_inhib,lamp_pos,inhibition,control,distractor,target,R,lamp_pos,Y,7/23/2015,12:17:00,0.779,1,-0.24974423311138874,-0.23752603141136527,0.3746167648693195
246,1,2,4,126,lamp_pos,lamp_inhib,lamp_pos,inhibition,control,distractor,target,R,lamp_pos,Y,7/23/2015,12:17:00,0.322,1,-1.1332037334377287,-0.23752603141136527,0.3746167648693195
247,1,2,4,127,lamp_pos,lamp_inhib,lamp_pos,inhibition,control,distractor,target,R,lamp_pos,Y,7/23/2015,12:17:00,0.397,1,-0.9238189982949466,-0.23752603141136527,0.3746167648693195
248,1,2,4,128,lamp_pos,lamp_inhib,lamp_pos,inhibition,control,distractor,target,R,lamp_pos,Y,7/23/2015,12:17:00,0.408,1,-0.8964881045779755,-0.23752603141136527,0.3746167648693195
249,1,2,4,129,lamp_pos,lamp_inhib,lamp_pos,inhibition,control,distractor,target,R,lamp_pos,Y,7/23/2015,12:17:00,0.346,1,-1.0613165039244128,-0.23752603141136527,0.3746167648693195
250,1,2,4,130,lamp_pos,lamp_inhib,lamp_pos,inhibition,control,distractor,target,R,lamp_pos,Y,7/23/2015,12:17:00,0.328,1,-1.1147416705979933,-0.23752603141136527,0.3746167648693195
251,1,2,4,131,lamp_inhib,lamp_pos,lamp_inhib,inhibition,inhib,distractor,target,L,lamp_pos,N,7/23/2015,12:17:00,0.383,0,-0.959720289801491,-0.23752603141136527,0.3746167648693195
252,1,2,4,132,bicycle_pos,bicycle_pos,bicycle_inhib,inhibition,control,target,distractor,L,bicycle_pos,Y,7/23/2015,12:17:00,1.008,1,0.007968169649176881,-0.23752603141136527,0.3746167648693195
253,1,2,4,133,bicycle_pos,bicycle_pos,bicycle_inhib,inhibition,control,target,distractor,L,bicycle_pos,Y,7/23/2015,12:17:00,0.457,1,-0.7830718880879323,-0.23752603141136527,0.3746167648693195
254,1,2,4,134,bicycle_pos,bicycle_inhib,bicycle_pos,inhibition,control,distractor,target,R,bicycle_pos,Y,7/23/2015,12:17:00,0.423,1,-0.8603830999358592,-0.23752603141136527,0.3746167648693195
255,1,2,4,135,bicycle_pos,bicycle_inhib,bicycle_pos,inhibition,control,distractor,target,R,bicycle_pos,Y,7/23/2015,12:17:00,0.407,1,-0.8989420935395421,-0.23752603141136527,0.3746167648693195
256,1,2,4,136,bicycle_pos,bicycle_pos,bicycle_inhib,inhibition,control,target,distractor,L,bicycle_pos,Y,7/23/2015,12:17:00,0.426,1,-0.8533159327127666,-0.23752603141136527,0.3746167648693195
257,1,2,4,137,bicycle_pos,bicycle_inhib,bicycle_pos,inhibition,control,distractor,target,R,bicycle_pos,Y,7/23/2015,12:17:00,0.461,1,-0.7743572359854884,-0.23752603141136527,0.3746167648693195
258,1,2,4,138,bicycle_inhib,bicycle_pos,bicycle_inhib,inhibition,inhib,distractor,target,R,bicycle_inhib,Y,7/23/2015,12:17:00,0.6,1,-0.5108256237659907,-0.23752603141136527,0.3746167648693195
259,1,2,4,139,cup_pos,cup_pos,cup_inhib,inhibition,control,target,distractor,L,cup_pos,Y,7/23/2015,12:17:00,0.804,1,-0.21815600980317063,-0.23752603141136527,0.3746167648693195
260,1,2,4,140,cup_pos,cup_pos,cup_inhib,inhibition,control,target,distractor,L,cup_pos,Y,7/23/2015,12:17:00,0.471,1,-0.7528971849657193,-0.23752603141136527,0.3746167648693195
261,1,2,4,141,cup_pos,cup_inhib,cup_pos,inhibition,control,distractor,target,R,cup_pos,Y,7/23/2015,12:17:00,0.406,1,-0.9014021193804044,-0.23752603141136527,0.3746167648693195
262,1,2,4,142,cup_pos,cup_pos,cup_inhib,inhibition,control,target,distractor,L,cup_pos,Y,7/23/2015,12:17:00,0.278,1,-1.2801341652915,-0.23752603141136527,0.3746167648693195
263,1,2,4,143,cup_pos,cup_inhib,cup_pos,inhibition,control,distractor,target,R,cup_pos,Y,7/23/2015,12:17:00,0.355,1,-1.0356374895067213,-0.23752603141136527,0.3746167648693195
264,1,2,4,144,cup_inhib,cup_pos,cup_inhib,inhibition,inhib,distractor,target,L,cup_pos,N,7/23/2015,12:17:00,0.324,0,-1.1270117631898076,-0.23752603141136527,0.3746167648693195
265,1,2,4,145,banana_pos,banana_inhib,banana_pos,inhibition,control,distractor,target,R,banana_pos,Y,7/23/2015,12:17:00,1.227,1,0.20457216572877446,-0.23752603141136527,0.3746167648693195
266,1,2,4,146,banana_pos,banana_pos,banana_inhib,inhibition,control,target,distractor,L,banana_pos,Y,7/23/2015,12:17:00,0.493,1,-0.707246104939447,-0.23752603141136527,0.3746167648693195
267,1,2,4,147,banana_pos,banana_inhib,banana_pos,inhibition,control,distractor,target,R,banana_pos,Y,7/23/2015,12:17:00,0.393,1,-0.9339456671128757,-0.23752603141136527,0.3746167648693195
268,1,2,4,148,banana_pos,banana_inhib,banana_pos,inhibition,control,distractor,target,R,banana_pos,Y,7/23/2015,12:17:00,0.54,1,-0.616186139423817,-0.23752603141136527,0.3746167648693195
269,1,2,4,149,banana_pos,banana_pos,banana_inhib,inhibition,control,target,distractor,L,banana_pos,Y,7/23/2015,12:17:00,0.44,1,-0.8209805520698302,-0.23752603141136527,0.3746167648693195
270,1,2,4,150,banana_inhib,banana_inhib,banana_pos,inhibition,inhib,target,distractor,L,banana_inhib,Y,7/23/2015,12:17:00,0.511,1,-0.6713856887784326,-0.23752603141136527,0.3746167648693195
271,1,2,4,151,cookie_pos,cookie_pos,cookie_inhib,inhibition,control,target,distractor,L,cookie_pos,Y,7/23/2015,12:17:00,0.383,1,-0.959720289801491,-0.23752603141136527,0.3746167648693195
272,1,2,4,152,cookie_pos,cookie_pos,cookie_inhib,inhibition,control,target,distractor,L,cookie_pos,Y,7/23/2015,12:17:00,0.343,1,-1.0700248318161971,-0.23752603141136527,0.3746167648693195
273,1,2,4,153,cookie_pos,cookie_pos,cookie_inhib,inhibition,control,target,distractor,L,cookie_pos,Y,7/23/2015,12:17:00,0.358,1,-1.0272222925814367,-0.23752603141136527,0.3746167648693195
274,1,2,4,154,cookie_pos,cookie_inhib,cookie_pos,inhibition,control,distractor,target,R,cookie_pos,Y,7/23/2015,12:17:00,0.413,1,-0.8843076860211043,-0.23752603141136527,0.3746167648693195
275,1,2,4,155,cookie_pos,cookie_inhib,cookie_pos,inhibition,control,distractor,target,R,cookie_pos,Y,7/23/2015,12:17:00,0.461,1,-0.7743572359854884,-0.23752603141136527,0.3746167648693195
276,1,2,4,156,cookie_pos,cookie_pos,cookie_inhib,inhibition,control,target,distractor,L,cookie_pos,Y,7/23/2015,12:17:00,0.379,1,-0.9702190738997107,-0.23752603141136527,0.3746167648693195
277,1,2,4,157,cookie_inhib,cookie_pos,cookie_inhib,inhibition,inhib,distractor,target,R,cookie_inhib,Y,7/23/2015,12:17:00,0.592,1,-0.5242486440981314,-0.23752603141136527,0.3746167648693195
278,1,2,4,1,cookie_pos,cookie_neg,cookie_pos,negation,positive,distractor,target,R,cookie_pos,Y,7/23/2015,12:17:00,0.843,1,-0.17078832098028163,-0.23752603141136527,0.3746167648693195
279,1,2,4,2,flower_neg,flower_neg,flower_pos,negation,negative,target,distractor,L,flower_neg,Y,7/23/2015,12:17:00,1.003,1,0.002995508979798371,-0.23752603141136527,0.3746167648693195
280,1,2,4,3,cat_pos,cat_pos,cat_neg,negation,positive,target,distractor,L,cat_pos,Y,7/23/2015,12:17:00,1.081,1,0.0778865386570712,-0.23752603141136527,0.3746167648693195
281,1,2,4,4,bicycle_pos,bicycle_pos,bicycle_neg,negation,positive,target,distractor,L,bicycle_pos,Y,7/23/2015,12:17:00,0.781,1,-0.24718012914245105,-0.23752603141136527,0.3746167648693195
282,1,2,4,5,lamp_pos,lamp_neg,lamp_pos,negation,positive,distractor,target,L,lamp_neg,N,7/23/2015,12:17:00,0.586,0,-0.5344354894051245,-0.23752603141136527,0.3746167648693195
283,1,2,4,6,bird_neg,bird_pos,bird_neg,negation,negative,distractor,target,R,bird_neg,Y,7/23/2015,12:17:00,0.778,1,-0.2510287548037454,-0.23752603141136527,0.3746167648693195
284,1,2,4,7,banana_neg,banana_neg,banana_pos,negation,negative,target,distractor,L,banana_neg,Y,7/23/2015,12:17:00,1.072,1,0.0695260626486103,-0.23752603141136527,0.3746167648693195
285,1,2,4,8,dog_pos,dog_pos,dog_neg,negation,positive,target,distractor,L,dog_pos,Y,7/23/2015,12:17:00,0.728,1,-0.3174542307854511,-0.23752603141136527,0.3746167648693195
286,1,2,4,9,apple_neg,apple_pos,apple_neg,negation,negative,distractor,target,R,apple_neg,Y,7/23/2015,12:17:00,0.5439999999999979,1,-0.6088060321261982,-0.23752603141136527,0.3746167648693195
287,1,2,4,10,car_neg,car_pos,car_neg,negation,negative,distractor,target,R,car_neg,Y,7/23/2015,12:17:00,0.598,1,-0.5141645250315053,-0.23752603141136527,0.3746167648693195
288,1,2,4,11,teddybear_neg,teddybear_neg,teddybear_pos,negation,negative,target,distractor,L,teddybear_neg,Y,7/23/2015,12:17:00,0.6849999999999979,1,-0.3783364407199148,-0.23752603141136527,0.3746167648693195
289,1,2,4,12,cup_neg,cup_pos,cup_neg,negation,negative,distractor,target,R,cup_neg,Y,7/23/2015,12:17:00,0.5730000000000011,1,-0.5568695622673956,-0.23752603141136527,0.3746167648693195
290,1,2,4,13,apple_pos,apple_neg,apple_pos,negation,positive,distractor,target,L,apple_neg,N,7/23/2015,12:17:00,1.016,0,0.015873349156290163,-0.23752603141136527,0.3746167648693195
291,1,2,4,14,cookie_pos,cookie_neg,cookie_pos,negation,positive,distractor,target,R,cookie_pos,Y,7/23/2015,12:17:00,1.153,1,0.142367241286922,-0.23752603141136527,0.3746167648693195
292,1,2,4,15,banana_pos,banana_neg,banana_pos,negation,positive,distractor,target,R,banana_pos,Y,7/23/2015,12:17:00,0.723,1,-0.3243460568233724,-0.23752603141136527,0.3746167648693195
293,1,2,4,16,dog_pos,dog_neg,dog_pos,negation,positive,distractor,target,R,dog_pos,Y,7/23/2015,12:17:00,0.862,1,-0.14850000831844395,-0.23752603141136527,0.3746167648693195
294,1,2,4,17,bird_neg,bird_pos,bird_neg,negation,negative,distractor,target,R,bird_neg,Y,7/23/2015,12:17:00,0.759,1,-0.27575350158650713,-0.23752603141136527,0.3746167648693195
295,1,2,4,18,bicycle_neg,bicycle_neg,bicycle_pos,negation,negative,target,distractor,L,bicycle_neg,Y,7/23/2015,12:17:00,1.004,1,0.003992021269537457,-0.23752603141136527,0.3746167648693195
296,1,2,4,19,cup_neg,cup_pos,cup_neg,negation,negative,distractor,target,R,cup_neg,Y,7/23/2015,12:17:00,0.604000000000001,1,-0.5041810810473205,-0.23752603141136527,0.3746167648693195
297,1,2,4,20,lamp_neg,lamp_pos,lamp_neg,negation,negative,distractor,target,R,lamp_neg,Y,7/23/2015,12:17:00,0.7079999999999971,1,-0.3453111852884214,-0.23752603141136527,0.3746167648693195
298,1,2,4,21,car_pos,car_neg,car_pos,negation,positive,distractor,target,R,car_pos,Y,7/23/2015,12:17:00,0.837,1,-0.17793120849266178,-0.23752603141136527,0.3746167648693195
299,1,2,4,22,cat_pos,cat_pos,cat_neg,negation,positive,target,distractor,L,cat_pos,Y,7/23/2015,12:17:00,0.934,1,-0.06827884075329438,-0.23752603141136527,0.3746167648693195
300,1,2,4,23,flower_pos,flower_pos,flower_neg,negation,positive,target,distractor,L,flower_pos,Y,7/23/2015,12:17:00,0.587,1,-0.5327304591540407,-0.23752603141136527,0.3746167648693195
301,1,2,4,25,lamp_neg,lamp_neg,lamp_pos,negation,negative,target,distractor,L,lamp_neg,Y,7/23/2015,12:17:00,0.539999999999997,1,-0.6161861394238225,-0.23752603141136527,0.3746167648693195
302,1,2,4,24,teddybear_neg,teddybear_neg,teddybear_pos,negation,negative,target,distractor,L,teddybear_neg,Y,7/23/2015,12:17:00,0.6499999999999979,1,-0.43078291609245745,-0.23752603141136527,0.3746167648693195
303,1,2,4,26,flower_pos,flower_neg,flower_pos,negation,positive,distractor,target,R,flower_pos,Y,7/23/2015,12:17:00,0.888,1,-0.11878353598996698,-0.23752603141136527,0.3746167648693195
304,1,2,4,27,bicycle_pos,bicycle_pos,bicycle_neg,negation,positive,target,distractor,L,bicycle_pos,Y,7/23/2015,12:17:00,0.542,1,-0.6124892775424908,-0.23752603141136527,0.3746167648693195
305,1,2,4,28,dog_pos,dog_neg,dog_pos,negation,positive,distractor,target,R,dog_pos,Y,7/23/2015,12:17:00,0.602,1,-0.507497833673316,-0.23752603141136527,0.3746167648693195
306,1,2,4,29,cup_pos,cup_pos,cup_neg,negation,positive,target,distractor,L,cup_pos,Y,7/23/2015,12:17:00,0.554,1,-0.5905905922348531,-0.23752603141136527,0.3746167648693195
307,1,2,4,30,apple_pos,apple_pos,apple_neg,negation,positive,target,distractor,L,apple_pos,Y,7/23/2015,12:17:00,0.579,1,-0.5464528014091419,-0.23752603141136527,0.3746167648693195
308,1,2,4,31,cookie_neg,cookie_neg,cookie_pos,negation,negative,target,distractor,L,cookie_neg,Y,7/23/2015,12:17:00,0.547,1,-0.6033064765601558,-0.23752603141136527,0.3746167648693195
309,1,2,4,32,teddybear_neg,teddybear_neg,teddybear_pos,negation,negative,target,distractor,L,teddybear_neg,Y,7/23/2015,12:17:00,0.720999999999998,1,-0.3271161416971908,-0.23752603141136527,0.3746167648693195
310,1,2,4,33,bird_neg,bird_pos,bird_neg,negation,negative,distractor,target,R,bird_neg,Y,7/23/2015,12:17:00,0.55,1,-0.5978370007556204,-0.23752603141136527,0.3746167648693195
311,1,2,4,34,cat_pos,cat_pos,cat_neg,negation,positive,target,distractor,L,cat_pos,Y,7/23/2015,12:17:00,0.655,1,-0.4231200433468851,-0.23752603141136527,0.3746167648693195
312,1,2,4,35,banana_neg,banana_pos,banana_neg,negation,negative,distractor,target,R,banana_neg,Y,7/23/2015,12:17:00,0.5730000000000011,1,-0.5568695622673956,-0.23752603141136527,0.3746167648693195
313,1,2,4,36,car_neg,car_neg,car_pos,negation,negative,target,distractor,L,car_neg,Y,7/23/2015,12:17:00,0.59,1,-0.527632742082372,-0.23752603141136527,0.3746167648693195
314,1,2,4,37,car_pos,car_pos,car_neg,negation,positive,target,distractor,L,car_pos,Y,7/23/2015,12:17:00,0.644,1,-0.4400565528777834,-0.23752603141136527,0.3746167648693195
315,1,2,4,38,banana_neg,banana_neg,banana_pos,negation,negative,target,distractor,R,banana_pos,N,7/23/2015,12:17:00,0.517000000000001,0,-0.6597124044737059,-0.23752603141136527,0.3746167648693195
316,1,2,4,39,dog_pos,dog_neg,dog_pos,negation,positive,distractor,target,R,dog_pos,Y,7/23/2015,12:17:00,0.79,1,-0.23572233352106983,-0.23752603141136527,0.3746167648693195
317,1,2,4,40,teddybear_neg,teddybear_pos,teddybear_neg,negation,negative,distractor,target,R,teddybear_neg,Y,7/23/2015,12:17:00,0.7689999999999979,1,-0.26266430947649577,-0.23752603141136527,0.3746167648693195
318,1,2,4,41,cup_pos,cup_neg,cup_pos,negation,positive,distractor,target,R,cup_pos,Y,7/23/2015,12:17:00,0.748,1,-0.2903523010076598,-0.23752603141136527,0.3746167648693195
319,1,2,4,42,bird_pos,bird_neg,bird_pos,negation,positive,distractor,target,R,bird_pos,Y,7/23/2015,12:17:00,0.76,1,-0.2744368457017603,-0.23752603141136527,0.3746167648693195
320,1,2,4,43,apple_neg,apple_neg,apple_pos,negation,negative,target,distractor,L,apple_neg,Y,7/23/2015,12:17:00,0.5379999999999979,1,-0.6198967188203565,-0.23752603141136527,0.3746167648693195
321,1,2,4,44,lamp_pos,lamp_pos,lamp_neg,negation,positive,target,distractor,L,lamp_pos,Y,7/23/2015,12:17:00,0.669,1,-0.4019712188539085,-0.23752603141136527,0.3746167648693195
322,1,2,4,45,cat_neg,cat_neg,cat_pos,negation,negative,target,distractor,L,cat_neg,Y,7/23/2015,12:17:00,0.652000000000001,1,-0.4277107170554825,-0.23752603141136527,0.3746167648693195
323,1,2,4,46,cookie_pos,cookie_pos,cookie_neg,negation,positive,target,distractor,L,cookie_pos,Y,7/23/2015,12:17:00,0.666,1,-0.40646560844174784,-0.23752603141136527,0.3746167648693195
324,1,2,4,48,flower_neg,flower_pos,flower_neg,negation,negative,distractor,target,L,flower_pos,N,7/23/2015,12:17:00,0.498000000000001,0,-0.6971552019574822,-0.23752603141136527,0.3746167648693195
325,1,2,4,47,bicycle_neg,bicycle_pos,bicycle_neg,negation,negative,distractor,target,R,bicycle_neg,Y,7/23/2015,12:17:00,0.881000000000001,1,-0.1266976530459564,-0.23752603141136527,0.3746167648693195
326,1,2,4,49,banana_pos,banana_neg,banana_pos,negation,positive,distractor,target,L,banana_neg,N,7/23/2015,12:17:00,1.032,0,0.031498667059371016,-0.23752603141136527,0.3746167648693195
327,1,2,4,50,flower_pos,flower_neg,flower_pos,negation,positive,distractor,target,R,flower_pos,Y,7/23/2015,12:17:00,1.107,1,0.10165365372649982,-0.23752603141136527,0.3746167648693195
328,1,2,4,51,bird_neg,bird_neg,bird_pos,negation,negative,target,distractor,R,bird_pos,N,7/23/2015,12:17:00,0.541,0,-0.6143360001356555,-0.23752603141136527,0.3746167648693195
329,1,2,4,52,apple_neg,apple_pos,apple_neg,negation,negative,distractor,target,L,apple_pos,N,7/23/2015,12:17:00,0.480999999999998,0,-0.7318880088763801,-0.23752603141136527,0.3746167648693195
330,1,2,4,53,lamp_neg,lamp_neg,lamp_pos,negation,negative,target,distractor,R,lamp_pos,N,7/23/2015,12:17:00,0.519999999999997,0,-0.6539264674066697,-0.23752603141136527,0.3746167648693195
331,1,2,4,54,bicycle_pos,bicycle_pos,bicycle_neg,negation,positive,target,distractor,L,bicycle_pos,Y,7/23/2015,12:17:00,0.77,1,-0.2613647641344075,-0.23752603141136527,0.3746167648693195
332,1,2,4,55,cup_pos,cup_pos,cup_neg,negation,positive,target,distractor,L,cup_pos,Y,7/23/2015,12:17:00,0.757,1,-0.2783920255446883,-0.23752603141136527,0.3746167648693195
333,1,2,4,56,car_neg,car_pos,car_neg,negation,negative,distractor,target,R,car_neg,Y,7/23/2015,12:17:00,0.626,1,-0.46840490788203853,-0.23752603141136527,0.3746167648693195
334,1,2,4,57,cookie_pos,cookie_neg,cookie_pos,negation,positive,distractor,target,R,cookie_pos,Y,7/23/2015,12:17:00,0.712,1,-0.3396773675701613,-0.23752603141136527,0.3746167648693195
335,1,2,4,58,teddybear_pos,teddybear_pos,teddybear_neg,negation,positive,target,distractor,L,teddybear_pos,Y,7/23/2015,12:17:00,0.602,1,-0.507497833673316,-0.23752603141136527,0.3746167648693195
336,1,2,4,59,cat_pos,cat_pos,cat_neg,negation,positive,target,distractor,L,cat_pos,Y,7/23/2015,12:17:00,0.64,1,-0.4462871026284195,-0.23752603141136527,0.3746167648693195
337,1,2,4,60,dog_neg,dog_neg,dog_pos,negation,negative,target,distractor,L,dog_neg,Y,7/23/2015,12:17:00,0.857,1,-0.15431736038435728,-0.23752603141136527,0.3746167648693195
338,1,2,4,61,bird_pos,bird_pos,bird_neg,negation,positive,target,distractor,R,bird_neg,N,7/23/2015,12:17:00,0.717,0,-0.33267943838251673,-0.23752603141136527,0.3746167648693195
339,1,2,4,62,teddybear_neg,teddybear_pos,teddybear_neg,negation,negative,distractor,target,L,teddybear_pos,N,7/23/2015,12:17:00,0.711999999999998,0,-0.33967736757016415,-0.23752603141136527,0.3746167648693195
340,1,2,4,63,flower_pos,flower_pos,flower_neg,negation,positive,target,distractor,L,flower_pos,Y,7/23/2015,12:17:00,0.881,1,-0.12669765304595754,-0.23752603141136527,0.3746167648693195
341,1,2,4,64,car_neg,car_pos,car_neg,negation,negative,distractor,target,R,car_neg,Y,7/23/2015,12:17:00,0.58,1,-0.5447271754416722,-0.23752603141136527,0.3746167648693195
342,1,2,4,65,dog_pos,dog_pos,dog_neg,negation,positive,target,distractor,L,dog_pos,Y,7/23/2015,12:17:00,0.611,1,-0.49265831981054176,-0.23752603141136527,0.3746167648693195
343,1,2,4,66,apple_pos,apple_pos,apple_neg,negation,positive,target,distractor,L,apple_pos,Y,7/23/2015,12:17:00,0.76,1,-0.2744368457017603,-0.23752603141136527,0.3746167648693195
344,1,2,4,67,lamp_neg,lamp_pos,lamp_neg,negation,negative,distractor,target,R,lamp_neg,Y,7/23/2015,12:17:00,0.918999999999997,1,-0.08446915662645323,-0.23752603141136527,0.3746167648693195
345,1,2,4,68,bicycle_pos,bicycle_pos,bicycle_neg,negation,positive,target,distractor,L,bicycle_pos,Y,7/23/2015,12:17:00,0.722,1,-0.32573014008931084,-0.23752603141136527,0.3746167648693195
346,1,2,4,69,cookie_neg,cookie_neg,cookie_pos,negation,negative,target,distractor,L,cookie_neg,Y,7/23/2015,12:17:00,0.653,1,-0.42617814970570594,-0.23752603141136527,0.3746167648693195
347,1,2,4,70,banana_neg,banana_neg,banana_pos,negation,negative,target,distractor,L,banana_neg,Y,7/23/2015,12:17:00,1.061,1,0.05921185963184603,-0.23752603141136527,0.3746167648693195
348,1,2,4,71,cat_neg,cat_neg,cat_pos,negation,negative,target,distractor,R,cat_pos,N,7/23/2015,12:17:00,0.557000000000001,0,-0.5851900390548511,-0.23752603141136527,0.3746167648693195
349,1,2,4,72,cup_pos,cup_pos,cup_neg,negation,positive,target,distractor,L,cup_pos,Y,7/23/2015,12:17:00,0.73,1,-0.31471074483970024,-0.23752603141136527,0.3746167648693195
350,1,2,4,73,banana_pos,banana_pos,banana_neg,negation,positive,target,distractor,L,banana_pos,Y,7/23/2015,12:17:00,1.4,1,0.3364722366212129,-0.23752603141136527,0.3746167648693195
351,1,2,4,74,dog_neg,dog_pos,dog_neg,negation,negative,distractor,target,R,dog_neg,Y,7/23/2015,12:17:00,1.156,1,0.14496577025018564,-0.23752603141136527,0.3746167648693195
352,1,2,4,75,flower_neg,flower_neg,flower_pos,negation,negative,target,distractor,L,flower_neg,Y,7/23/2015,12:17:00,0.49400000000000105,1,-0.7052197617942124,-0.23752603141136527,0.3746167648693195
353,1,2,4,76,bird_pos,bird_pos,bird_neg,negation,positive,target,distractor,R,bird_neg,N,7/23/2015,12:17:00,0.702,0,-0.353821874956326,-0.23752603141136527,0.3746167648693195
354,1,2,4,77,lamp_neg,lamp_pos,lamp_neg,negation,negative,distractor,target,L,lamp_pos,N,7/23/2015,12:17:00,0.526999999999997,0,-0.6405547304407804,-0.23752603141136527,0.3746167648693195
355,1,2,4,78,cat_neg,cat_pos,cat_neg,negation,negative,distractor,target,R,cat_neg,Y,7/23/2015,12:17:00,0.8140000000000011,1,-0.20579491297959546,-0.23752603141136527,0.3746167648693195
356,1,2,4,79,cookie_pos,cookie_pos,cookie_neg,negation,positive,target,distractor,L,cookie_pos,Y,7/23/2015,12:17:00,0.543,1,-0.6106459590482015,-0.23752603141136527,0.3746167648693195
357,1,2,4,80,bicycle_neg,bicycle_pos,bicycle_neg,negation,negative,distractor,target,R,bicycle_neg,Y,7/23/2015,12:17:00,0.5830000000000011,1,-0.5395680926316428,-0.23752603141136527,0.3746167648693195
358,1,2,4,81,apple_neg,apple_pos,apple_neg,negation,negative,distractor,target,L,apple_pos,N,7/23/2015,12:17:00,0.493999999999998,0,-0.7052197617942186,-0.23752603141136527,0.3746167648693195
359,1,2,4,82,cup_neg,cup_pos,cup_neg,negation,negative,distractor,target,R,cup_neg,Y,7/23/2015,12:17:00,0.596000000000001,1,-0.5175146119167856,-0.23752603141136527,0.3746167648693195
360,1,2,4,83,teddybear_pos,teddybear_pos,teddybear_neg,negation,positive,target,distractor,L,teddybear_pos,Y,7/23/2015,12:17:00,0.729,1,-0.31608154697347896,-0.23752603141136527,0.3746167648693195
361,1,2,4,84,car_pos,car_neg,car_pos,negation,positive,distractor,target,L,car_neg,N,7/23/2015,12:17:00,0.693,0,-0.3667252797922339,-0.23752603141136527,0.3746167648693195
362,1,2,4,85,dog_neg,dog_neg,dog_pos,negation,negative,target,distractor,L,dog_neg,Y,7/23/2015,12:17:00,1.747,1,0.5579000311519196,-0.23752603141136527,0.3746167648693195
363,1,2,4,86,bird_pos,bird_pos,bird_neg,negation,positive,target,distractor,L,bird_pos,Y,7/23/2015,12:17:00,0.724,1,-0.3229638865964207,-0.23752603141136527,0.3746167648693195
364,1,2,4,87,cup_pos,cup_neg,cup_pos,negation,positive,distractor,target,R,cup_pos,Y,7/23/2015,12:17:00,0.827,1,-0.1899505839584458,-0.23752603141136527,0.3746167648693195
365,1,2,4,88,banana_neg,banana_neg,banana_pos,negation,negative,target,distractor,L,banana_neg,Y,7/23/2015,12:17:00,0.6970000000000011,1,-0.36096986822161164,-0.23752603141136527,0.3746167648693195
366,1,2,4,89,cookie_neg,cookie_neg,cookie_pos,negation,negative,target,distractor,L,cookie_neg,Y,7/23/2015,12:17:00,0.759,1,-0.27575350158650713,-0.23752603141136527,0.3746167648693195
367,1,2,4,90,lamp_neg,lamp_pos,lamp_neg,negation,negative,distractor,target,R,lamp_neg,Y,7/23/2015,12:17:00,0.483999999999997,1,-0.7256703722655116,-0.23752603141136527,0.3746167648693195
368,1,2,4,91,cat_neg,cat_neg,cat_pos,negation,negative,target,distractor,L,cat_neg,Y,7/23/2015,12:17:00,0.861000000000001,1,-0.1496607745544051,-0.23752603141136527,0.3746167648693195
369,1,2,4,92,car_pos,car_neg,car_pos,negation,positive,distractor,target,R,car_pos,Y,7/23/2015,12:17:00,0.841,1,-0.17316361900918903,-0.23752603141136527,0.3746167648693195
370,1,2,4,93,bicycle_pos,bicycle_neg,bicycle_pos,negation,positive,distractor,target,R,bicycle_pos,Y,7/23/2015,12:17:00,0.832,1,-0.1839228381609285,-0.23752603141136527,0.3746167648693195
371,1,2,4,94,apple_neg,apple_neg,apple_pos,negation,negative,target,distractor,R,apple_pos,N,7/23/2015,12:17:00,0.6349999999999979,0,-0.4541302800894487,-0.23752603141136527,0.3746167648693195
372,1,2,4,95,flower_pos,flower_pos,flower_neg,negation,positive,target,distractor,L,flower_pos,Y,7/23/2015,12:17:00,0.929,1,-0.07364654016829848,-0.23752603141136527,0.3746167648693195
373,1,2,4,96,teddybear_pos,teddybear_pos,teddybear_neg,negation,positive,target,distractor,L,teddybear_pos,Y,7/23/2015,12:17:00,0.7,1,-0.35667494393873245,-0.23752603141136527,0.3746167648693195
374,1,2,4,97,apple_neg,apple_pos,apple_neg,negation,negative,distractor,target,R,apple_neg,Y,7/23/2015,12:17:00,0.578999999999998,1,-0.5464528014091453,-0.23752603141136527,0.3746167648693195
375,1,2,4,98,dog_pos,dog_neg,dog_pos,negation,positive,distractor,target,R,dog_pos,Y,7/23/2015,12:17:00,0.815,1,-0.2045671657412744,-0.23752603141136527,0.3746167648693195
376,1,2,4,99,bird_neg,bird_neg,bird_pos,negation,negative,target,distractor,L,bird_neg,Y,7/23/2015,12:17:00,0.64,1,-0.4462871026284195,-0.23752603141136527,0.3746167648693195
377,1,2,4,100,cookie_neg,cookie_neg,cookie_pos,negation,negative,target,distractor,L,cookie_neg,Y,7/23/2015,12:17:00,0.691,1,-0.36961545521446726,-0.23752603141136527,0.3746167648693195
378,1,2,4,101,teddybear_pos,teddybear_pos,teddybear_neg,negation,positive,target,distractor,L,teddybear_pos,Y,7/23/2015,12:17:00,0.804,1,-0.21815600980317063,-0.23752603141136527,0.3746167648693195
379,1,2,4,102,banana_pos,banana_neg,banana_pos,negation,positive,distractor,target,L,banana_neg,N,7/23/2015,12:17:00,0.829,0,-0.18753512384684212,-0.23752603141136527,0.3746167648693195
380,1,2,4,103,cup_neg,cup_pos,cup_neg,negation,negative,distractor,target,L,cup_pos,N,7/23/2015,12:17:00,1.441,0,0.3653373170173851,-0.23752603141136527,0.3746167648693195
381,1,2,4,104,car_pos,car_neg,car_pos,negation,positive,distractor,target,L,car_neg,N,7/23/2015,12:17:00,0.703,0,-0.3523983871714722,-0.23752603141136527,0.3746167648693195
382,1,2,4,105,flower_pos,flower_neg,flower_pos,negation,positive,distractor,target,R,flower_pos,Y,7/23/2015,12:17:00,1.207,1,0.1881379421153945,-0.23752603141136527,0.3746167648693195
383,1,2,4,106,cat_neg,cat_neg,cat_pos,negation,negative,target,distractor,L,cat_neg,Y,7/23/2015,12:17:00,1.069,1,0.06672363204290813,-0.23752603141136527,0.3746167648693195
384,1,2,4,107,lamp_neg,lamp_pos,lamp_neg,negation,negative,distractor,target,R,lamp_neg,Y,7/23/2015,12:17:00,0.493999999999997,1,-0.7052197617942206,-0.23752603141136527,0.3746167648693195
385,1,2,4,108,bicycle_pos,bicycle_neg,bicycle_pos,negation,positive,distractor,target,R,bicycle_pos,Y,7/23/2015,12:17:00,0.834,1,-0.18152187662339034,-0.23752603141136527,0.3746167648693195
386,1,2,4,109,cup_pos,cup_neg,cup_pos,negation,positive,distractor,target,R,cup_pos,Y,7/23/2015,12:17:00,0.757,1,-0.2783920255446883,-0.23752603141136527,0.3746167648693195
387,1,2,4,110,cat_neg,cat_pos,cat_neg,negation,negative,distractor,target,R,cat_neg,Y,7/23/2015,12:17:00,0.849000000000001,1,-0.16369609267078858,-0.23752603141136527,0.3746167648693195
388,1,2,4,111,banana_neg,banana_pos,banana_neg,negation,negative,distractor,target,R,banana_neg,Y,7/23/2015,12:17:00,0.653000000000001,1,-0.42617814970570445,-0.23752603141136527,0.3746167648693195
389,1,2,4,113,apple_neg,apple_pos,apple_neg,negation,negative,distractor,target,R,apple_neg,Y,7/23/2015,12:17:00,0.6749999999999979,1,-0.3930425881096103,-0.23752603141136527,0.3746167648693195
390,1,2,4,112,bird_neg,bird_pos,bird_neg,negation,negative,distractor,target,L,bird_pos,N,7/23/2015,12:17:00,0.783,0,-0.2446225829913339,-0.23752603141136527,0.3746167648693195
391,1,2,4,114,car_pos,car_neg,car_pos,negation,positive,distractor,target,R,car_pos,Y,7/23/2015,12:17:00,0.848,1,-0.164874643190234,-0.23752603141136527,0.3746167648693195
392,1,2,4,115,lamp_pos,lamp_neg,lamp_pos,negation,positive,distractor,target,R,lamp_pos,Y,7/23/2015,12:17:00,0.706,1,-0.34814004148889505,-0.23752603141136527,0.3746167648693195
393,1,2,4,116,dog_neg,dog_pos,dog_neg,negation,negative,distractor,target,R,dog_neg,Y,7/23/2015,12:17:00,0.954,1,-0.04709160753385057,-0.23752603141136527,0.3746167648693195
394,1,2,4,117,bicycle_neg,bicycle_neg,bicycle_pos,negation,negative,target,distractor,L,bicycle_neg,Y,7/23/2015,12:17:00,0.676000000000001,1,-0.39156220293917143,-0.23752603141136527,0.3746167648693195
395,1,2,4,118,cookie_pos,cookie_pos,cookie_neg,negation,positive,target,distractor,L,cookie_pos,Y,7/23/2015,12:17:00,1.04,1,0.03922071315328133,-0.23752603141136527,0.3746167648693195
396,1,2,4,119,teddybear_pos,teddybear_neg,teddybear_pos,negation,positive,distractor,target,R,teddybear_pos,Y,7/23/2015,12:17:00,0.715,1,-0.33547273628812946,-0.23752603141136527,0.3746167648693195
397,1,2,4,120,flower_pos,flower_neg,flower_pos,negation,positive,distractor,target,R,flower_pos,Y,7/23/2015,12:17:00,0.808,1,-0.2131932204610416,-0.23752603141136527,0.3746167648693195
398,2,2,3,1,cookie_pos,cookie_neg,cookie_pos,negation,positive,distractor,target,R,cookie_pos,Y,7/24/2015,11:22:00,1.314,1,0.2730759200624188,-0.23752603141136527,0.3746167648693195
399,2,2,3,2,flower_neg,flower_neg,flower_pos,negation,negative,target,distractor,R,flower_pos,N,7/24/2015,11:22:00,1.18,0,0.16551443847757333,-0.23752603141136527,0.3746167648693195
400,2,2,3,3,cat_neg,cat_neg,cat_pos,negation,negative,target,distractor,L,cat_neg,Y,7/24/2015,11:22:00,1.191,1,0.1747932903731631,-0.23752603141136527,0.3746167648693195
401,2,2,3,4,bicycle_neg,bicycle_pos,bicycle_neg,negation,negative,distractor,target,R,bicycle_neg,Y,7/24/2015,11:22:00,0.868000000000001,1,-0.14156356432178574,-0.23752603141136527,0.3746167648693195
402,2,2,3,5,lamp_pos,lamp_neg,lamp_pos,negation,positive,distractor,target,L,lamp_neg,N,7/24/2015,11:22:00,0.918,0,-0.08555788836164654,-0.23752603141136527,0.3746167648693195
403,2,2,3,6,bird_pos,bird_pos,bird_neg,negation,positive,target,distractor,L,bird_pos,Y,7/24/2015,11:22:00,1.025,1,0.024692612590371414,-0.23752603141136527,0.3746167648693195
404,2,2,3,7,banana_pos,banana_neg,banana_pos,negation,positive,distractor,target,R,banana_pos,Y,7/24/2015,11:22:00,1.355,1,0.3038014543316642,-0.23752603141136527,0.3746167648693195
405,2,2,3,8,dog_pos,dog_pos,dog_neg,negation,positive,target,distractor,L,dog_pos,Y,7/24/2015,11:22:00,0.877,1,-0.13124828660995402,-0.23752603141136527,0.3746167648693195
406,2,2,3,9,apple_pos,apple_pos,apple_neg,negation,positive,target,distractor,L,apple_pos,Y,7/24/2015,11:22:00,0.737,1,-0.3051673867928005,-0.23752603141136527,0.3746167648693195
407,2,2,3,10,car_neg,car_neg,car_pos,negation,negative,target,distractor,L,car_neg,Y,7/24/2015,11:22:00,1.177,1,0.16296882827813972,-0.23752603141136527,0.3746167648693195
408,2,2,3,11,teddybear_pos,teddybear_pos,teddybear_neg,negation,positive,target,distractor,L,teddybear_pos,Y,7/24/2015,11:22:00,1.155,1,0.14410034397375687,-0.23752603141136527,0.3746167648693195
409,2,2,3,12,cup_neg,cup_neg,cup_pos,negation,negative,target,distractor,L,cup_neg,Y,7/24/2015,11:22:00,0.9460000000000011,1,-0.05551270993025765,-0.23752603141136527,0.3746167648693195
410,2,2,3,13,apple_pos,apple_neg,apple_pos,negation,positive,distractor,target,R,apple_pos,Y,7/24/2015,11:22:00,1.362,1,0.3089542077273207,-0.23752603141136527,0.3746167648693195
411,2,2,3,14,cookie_neg,cookie_pos,cookie_neg,negation,negative,distractor,target,R,cookie_neg,Y,7/24/2015,11:22:00,0.714,1,-0.33687231664255274,-0.23752603141136527,0.3746167648693195
412,2,2,3,15,banana_neg,banana_neg,banana_pos,negation,negative,target,distractor,L,banana_neg,Y,7/24/2015,11:22:00,0.869000000000001,1,-0.14041215371674387,-0.23752603141136527,0.3746167648693195
413,2,2,3,16,dog_pos,dog_neg,dog_pos,negation,positive,distractor,target,R,dog_pos,Y,7/24/2015,11:22:00,0.993,1,-0.007024614936964466,-0.23752603141136527,0.3746167648693195
414,2,2,3,17,bird_pos,bird_pos,bird_neg,negation,positive,target,distractor,R,bird_neg,N,7/24/2015,11:22:00,1.197,0,0.17981842657583616,-0.23752603141136527,0.3746167648693195
415,2,2,3,18,bicycle_neg,bicycle_pos,bicycle_neg,negation,negative,distractor,target,R,bicycle_neg,Y,7/24/2015,11:22:00,1.169,1,0.15614868248993138,-0.23752603141136527,0.3746167648693195
416,2,2,3,19,cup_neg,cup_neg,cup_pos,negation,negative,target,distractor,L,cup_neg,Y,7/24/2015,11:22:00,1.324,1,0.2806574575148165,-0.23752603141136527,0.3746167648693195
417,2,2,3,20,lamp_pos,lamp_neg,lamp_pos,negation,positive,distractor,target,R,lamp_pos,Y,7/24/2015,11:22:00,1.259,1,0.23031775506221003,-0.23752603141136527,0.3746167648693195
418,2,2,3,21,car_pos,car_pos,car_neg,negation,positive,target,distractor,L,car_pos,Y,7/24/2015,11:22:00,1.127,1,0.11955923505763925,-0.23752603141136527,0.3746167648693195
419,2,2,3,22,cat_neg,cat_pos,cat_neg,negation,negative,distractor,target,R,cat_neg,Y,7/24/2015,11:22:00,1.034,1,0.03343477608623742,-0.23752603141136527,0.3746167648693195
420,2,2,3,23,flower_neg,flower_neg,flower_pos,negation,negative,target,distractor,L,flower_neg,Y,7/24/2015,11:22:00,0.935,1,-0.06720874969344999,-0.23752603141136527,0.3746167648693195
421,2,2,3,24,teddybear_pos,teddybear_pos,teddybear_neg,negation,positive,target,distractor,L,teddybear_pos,Y,7/24/2015,11:22:00,0.976,1,-0.024292692569044587,-0.23752603141136527,0.3746167648693195
422,2,2,3,25,lamp_pos,lamp_pos,lamp_neg,negation,positive,target,distractor,L,lamp_pos,Y,7/24/2015,11:22:00,0.753,1,-0.2836900511822435,-0.23752603141136527,0.3746167648693195
423,2,2,3,26,flower_pos,flower_neg,flower_pos,negation,positive,distractor,target,R,flower_pos,Y,7/24/2015,11:22:00,0.986,1,-0.014098924379501648,-0.23752603141136527,0.3746167648693195
424,2,2,3,27,bicycle_neg,bicycle_pos,bicycle_neg,negation,negative,distractor,target,R,bicycle_neg,Y,7/24/2015,11:22:00,0.805000000000001,1,-0.21691300156357238,-0.23752603141136527,0.3746167648693195
425,2,2,3,28,dog_neg,dog_neg,dog_pos,negation,negative,target,distractor,L,dog_neg,Y,7/24/2015,11:22:00,1.098,1,0.09349034308733897,-0.23752603141136527,0.3746167648693195
426,2,2,3,29,cup_pos,cup_pos,cup_neg,negation,positive,target,distractor,L,cup_pos,Y,7/24/2015,11:22:00,0.991,1,-0.00904074465214907,-0.23752603141136527,0.3746167648693195
427,2,2,3,30,apple_neg,apple_neg,apple_pos,negation,negative,target,distractor,L,apple_neg,Y,7/24/2015,11:22:00,0.8919999999999979,1,-0.11428914640213002,-0.23752603141136527,0.3746167648693195
428,2,2,3,31,cookie_pos,cookie_neg,cookie_pos,negation,positive,distractor,target,R,cookie_pos,Y,7/24/2015,11:22:00,0.717,1,-0.33267943838251673,-0.23752603141136527,0.3746167648693195
429,2,2,3,32,teddybear_pos,teddybear_pos,teddybear_neg,negation,positive,target,distractor,L,teddybear_pos,Y,7/24/2015,11:22:00,0.713,1,-0.33827385856784115,-0.23752603141136527,0.3746167648693195
430,2,2,3,33,bird_pos,bird_neg,bird_pos,negation,positive,distractor,target,R,bird_pos,Y,7/24/2015,11:22:00,0.804,1,-0.21815600980317063,-0.23752603141136527,0.3746167648693195
431,2,2,3,34,cat_neg,cat_neg,cat_pos,negation,negative,target,distractor,L,cat_neg,Y,7/24/2015,11:22:00,1.23,1,0.20701416938432612,-0.23752603141136527,0.3746167648693195
432,2,2,3,35,banana_neg,banana_neg,banana_pos,negation,negative,target,distractor,L,banana_neg,Y,7/24/2015,11:22:00,1.39,1,0.3293037471426003,-0.23752603141136527,0.3746167648693195
433,2,2,3,36,car_pos,car_pos,car_neg,negation,positive,target,distractor,L,car_pos,Y,7/24/2015,11:22:00,1.02,1,0.01980262729617973,-0.23752603141136527,0.3746167648693195
434,2,2,3,37,car_neg,car_pos,car_neg,negation,negative,distractor,target,R,car_neg,Y,7/24/2015,11:22:00,0.861,1,-0.14966077455440627,-0.23752603141136527,0.3746167648693195
435,2,2,3,38,banana_neg,banana_neg,banana_pos,negation,negative,target,distractor,L,banana_neg,Y,7/24/2015,11:22:00,1.038,1,0.03729578474369693,-0.23752603141136527,0.3746167648693195
436,2,2,3,39,dog_pos,dog_neg,dog_pos,negation,positive,distractor,target,R,dog_pos,Y,7/24/2015,11:22:00,0.845,1,-0.16841865162496325,-0.23752603141136527,0.3746167648693195
437,2,2,3,40,teddybear_pos,teddybear_neg,teddybear_pos,negation,positive,distractor,target,R,teddybear_pos,Y,7/24/2015,11:22:00,0.88,1,-0.12783337150988489,-0.23752603141136527,0.3746167648693195
438,2,2,3,41,cup_neg,cup_neg,cup_pos,negation,negative,target,distractor,L,cup_neg,Y,7/24/2015,11:22:00,0.654000000000001,1,-0.4246479275249368,-0.23752603141136527,0.3746167648693195
439,2,2,3,42,bird_pos,bird_neg,bird_pos,negation,positive,distractor,target,R,bird_pos,Y,7/24/2015,11:22:00,0.939,1,-0.0629397997738742,-0.23752603141136527,0.3746167648693195
440,2,2,3,43,apple_pos,apple_neg,apple_pos,negation,positive,distractor,target,R,apple_pos,Y,7/24/2015,11:22:00,0.769,1,-0.26266430947649305,-0.23752603141136527,0.3746167648693195
441,2,2,3,44,lamp_pos,lamp_neg,lamp_pos,negation,positive,distractor,target,R,lamp_pos,Y,7/24/2015,11:22:00,0.783,1,-0.2446225829913339,-0.23752603141136527,0.3746167648693195
442,2,2,3,45,cat_pos,cat_neg,cat_pos,negation,positive,distractor,target,R,cat_pos,Y,7/24/2015,11:22:00,1.325,1,0.2814124594381855,-0.23752603141136527,0.3746167648693195
443,2,2,3,46,cookie_pos,cookie_neg,cookie_pos,negation,positive,distractor,target,R,cookie_pos,Y,7/24/2015,11:22:00,0.708,1,-0.34531118528841737,-0.23752603141136527,0.3746167648693195
444,2,2,3,47,bicycle_pos,bicycle_pos,bicycle_neg,negation,positive,target,distractor,L,bicycle_pos,Y,7/24/2015,11:22:00,1.157,1,0.14583044821153954,-0.23752603141136527,0.3746167648693195
445,2,2,3,48,flower_pos,flower_neg,flower_pos,negation,positive,distractor,target,R,flower_pos,Y,7/24/2015,11:22:00,0.755,1,-0.28103752973311236,-0.23752603141136527,0.3746167648693195
446,2,2,3,49,banana_pos,banana_neg,banana_pos,negation,positive,distractor,target,R,banana_pos,Y,7/24/2015,11:22:00,0.723,1,-0.3243460568233724,-0.23752603141136527,0.3746167648693195
447,2,2,3,50,flower_pos,flower_neg,flower_pos,negation,positive,distractor,target,R,flower_pos,Y,7/24/2015,11:22:00,0.832,1,-0.1839228381609285,-0.23752603141136527,0.3746167648693195
448,2,2,3,51,bird_neg,bird_pos,bird_neg,negation,negative,distractor,target,R,bird_neg,Y,7/24/2015,11:22:00,0.912,1,-0.09211528890780563,-0.23752603141136527,0.3746167648693195
449,2,2,3,52,apple_neg,apple_pos,apple_neg,negation,negative,distractor,target,R,apple_neg,Y,7/24/2015,11:22:00,0.878999999999998,1,-0.1289703812969623,-0.23752603141136527,0.3746167648693195
450,2,2,3,53,lamp_neg,lamp_neg,lamp_pos,negation,negative,target,distractor,L,lamp_neg,Y,7/24/2015,11:22:00,0.795999999999997,1,-0.22815609313775775,-0.23752603141136527,0.3746167648693195
451,2,2,3,54,bicycle_pos,bicycle_pos,bicycle_neg,negation,positive,target,distractor,R,bicycle_neg,N,7/24/2015,11:22:00,1.29,0,0.25464221837358075,-0.23752603141136527,0.3746167648693195
452,2,2,3,55,cup_neg,cup_pos,cup_neg,negation,negative,distractor,target,R,cup_neg,Y,7/24/2015,11:22:00,0.9630000000000011,1,-0.037701867184010376,-0.23752603141136527,0.3746167648693195
453,2,2,3,56,car_neg,car_pos,car_neg,negation,negative,distractor,target,R,car_neg,Y,7/24/2015,11:22:00,0.923,1,-0.08012604447928486,-0.23752603141136527,0.3746167648693195
454,2,2,3,57,cookie_neg,cookie_neg,cookie_pos,negation,negative,target,distractor,L,cookie_neg,Y,7/24/2015,11:22:00,0.766,1,-0.26657310924154576,-0.23752603141136527,0.3746167648693195
455,2,2,3,58,teddybear_pos,teddybear_neg,teddybear_pos,negation,positive,distractor,target,R,teddybear_pos,Y,7/24/2015,11:22:00,0.963,1,-0.03770186718401153,-0.23752603141136527,0.3746167648693195
456,2,2,3,59,cat_neg,cat_pos,cat_neg,negation,negative,distractor,target,R,cat_neg,Y,7/24/2015,11:22:00,1.159,1,0.1475575643576147,-0.23752603141136527,0.3746167648693195
457,2,2,3,60,dog_neg,dog_pos,dog_neg,negation,negative,distractor,target,R,dog_neg,Y,7/24/2015,11:22:00,1.875,1,0.6286086594223741,-0.23752603141136527,0.3746167648693195
458,2,2,3,61,bird_pos,bird_pos,bird_neg,negation,positive,target,distractor,L,bird_pos,Y,7/24/2015,11:22:00,1.449,1,0.3708736633385454,-0.23752603141136527,0.3746167648693195
459,2,2,3,62,teddybear_pos,teddybear_neg,teddybear_pos,negation,positive,distractor,target,R,teddybear_pos,Y,7/24/2015,11:22:00,0.946,1,-0.05551270993025883,-0.23752603141136527,0.3746167648693195
460,2,2,3,63,flower_pos,flower_neg,flower_pos,negation,positive,distractor,target,R,flower_pos,Y,7/24/2015,11:22:00,0.922,1,-0.08121005542554317,-0.23752603141136527,0.3746167648693195
461,2,2,3,64,car_pos,car_neg,car_pos,negation,positive,distractor,target,R,car_pos,Y,7/24/2015,11:22:00,0.703,1,-0.3523983871714722,-0.23752603141136527,0.3746167648693195
462,2,2,3,65,dog_pos,dog_neg,dog_pos,negation,positive,distractor,target,R,dog_pos,Y,7/24/2015,11:22:00,0.824,1,-0.1935847490726654,-0.23752603141136527,0.3746167648693195
463,2,2,3,66,apple_pos,apple_pos,apple_neg,negation,positive,target,distractor,L,apple_pos,Y,7/24/2015,11:22:00,0.832,1,-0.1839228381609285,-0.23752603141136527,0.3746167648693195
464,2,2,3,67,lamp_neg,lamp_neg,lamp_pos,negation,negative,target,distractor,L,lamp_neg,Y,7/24/2015,11:22:00,0.7129999999999971,1,-0.3382738585678452,-0.23752603141136527,0.3746167648693195
465,2,2,3,68,bicycle_pos,bicycle_pos,bicycle_neg,negation,positive,target,distractor,L,bicycle_pos,Y,7/24/2015,11:22:00,0.762,1,-0.2718087232954908,-0.23752603141136527,0.3746167648693195
466,2,2,3,69,cookie_neg,cookie_pos,cookie_neg,negation,negative,distractor,target,R,cookie_neg,Y,7/24/2015,11:22:00,0.734,1,-0.3092462503676215,-0.23752603141136527,0.3746167648693195
467,2,2,3,70,banana_pos,banana_neg,banana_pos,negation,positive,distractor,target,R,banana_pos,Y,7/24/2015,11:22:00,0.817,1,-0.20211618412213422,-0.23752603141136527,0.3746167648693195
468,2,2,3,71,cat_neg,cat_pos,cat_neg,negation,negative,distractor,target,R,cat_neg,Y,7/24/2015,11:22:00,0.843000000000001,1,-0.17078832098028043,-0.23752603141136527,0.3746167648693195
469,2,2,3,72,cup_pos,cup_neg,cup_pos,negation,positive,distractor,target,R,cup_pos,Y,7/24/2015,11:22:00,0.983,1,-0.017146158834970514,-0.23752603141136527,0.3746167648693195
470,2,2,3,73,banana_neg,banana_pos,banana_neg,negation,negative,distractor,target,R,banana_neg,Y,7/24/2015,11:22:00,0.803000000000001,1,-0.21940056503537408,-0.23752603141136527,0.3746167648693195
471,2,2,3,74,dog_pos,dog_neg,dog_pos,negation,positive,distractor,target,R,dog_pos,Y,7/24/2015,11:22:00,0.838,1,-0.17673717850005405,-0.23752603141136527,0.3746167648693195
472,2,2,3,75,flower_pos,flower_pos,flower_neg,negation,positive,target,distractor,L,flower_pos,Y,7/24/2015,11:22:00,1.242,1,0.21672298351128702,-0.23752603141136527,0.3746167648693195
473,2,2,3,76,bird_pos,bird_neg,bird_pos,negation,positive,distractor,target,R,bird_pos,Y,7/24/2015,11:22:00,0.739,1,-0.3024573580339353,-0.23752603141136527,0.3746167648693195
474,2,2,3,77,lamp_pos,lamp_pos,lamp_neg,negation,positive,target,distractor,L,lamp_pos,Y,7/24/2015,11:22:00,0.845,1,-0.16841865162496325,-0.23752603141136527,0.3746167648693195
475,2,2,3,78,cat_neg,cat_neg,cat_pos,negation,negative,target,distractor,L,cat_neg,Y,7/24/2015,11:22:00,1.223,1,0.20130685670503537,-0.23752603141136527,0.3746167648693195
476,2,2,3,79,cookie_neg,cookie_pos,cookie_neg,negation,negative,distractor,target,R,cookie_neg,Y,7/24/2015,11:22:00,0.715,1,-0.33547273628812946,-0.23752603141136527,0.3746167648693195
477,2,2,3,80,bicycle_neg,bicycle_pos,bicycle_neg,negation,negative,distractor,target,R,bicycle_neg,Y,7/24/2015,11:22:00,1.052,1,0.050693114315518165,-0.23752603141136527,0.3746167648693195
478,2,2,3,81,apple_neg,apple_pos,apple_neg,negation,negative,distractor,target,R,apple_neg,Y,7/24/2015,11:22:00,0.870999999999998,1,-0.13811330212963654,-0.23752603141136527,0.3746167648693195
479,2,2,3,82,cup_neg,cup_neg,cup_pos,negation,negative,target,distractor,L,cup_neg,Y,7/24/2015,11:22:00,0.906000000000001,1,-0.09871597293915658,-0.23752603141136527,0.3746167648693195
480,2,2,3,83,teddybear_neg,teddybear_pos,teddybear_neg,negation,negative,distractor,target,R,teddybear_neg,Y,7/24/2015,11:22:00,0.9009999999999979,1,-0.10425002137380145,-0.23752603141136527,0.3746167648693195
481,2,2,3,84,car_pos,car_neg,car_pos,negation,positive,distractor,target,R,car_pos,Y,7/24/2015,11:22:00,1.33,1,0.28517894223366247,-0.23752603141136527,0.3746167648693195
482,2,2,3,85,dog_neg,dog_pos,dog_neg,negation,negative,distractor,target,R,dog_neg,Y,7/24/2015,11:22:00,0.975,1,-0.025317807984289897,-0.23752603141136527,0.3746167648693195
483,2,2,3,86,bird_pos,bird_pos,bird_neg,negation,positive,target,distractor,L,bird_pos,Y,7/24/2015,11:22:00,0.929,1,-0.07364654016829848,-0.23752603141136527,0.3746167648693195
484,2,2,3,87,cup_pos,cup_pos,cup_neg,negation,positive,target,distractor,L,cup_pos,Y,7/24/2015,11:22:00,1.012,1,0.011928570865273812,-0.23752603141136527,0.3746167648693195
485,2,2,3,88,banana_neg,banana_neg,banana_pos,negation,negative,target,distractor,L,banana_neg,Y,7/24/2015,11:22:00,1.124,1,0.11689375147149943,-0.23752603141136527,0.3746167648693195
486,2,2,3,89,cookie_neg,cookie_pos,cookie_neg,negation,negative,distractor,target,R,cookie_neg,Y,7/24/2015,11:22:00,1.525,1,0.4219944100593749,-0.23752603141136527,0.3746167648693195
487,2,2,3,90,lamp_neg,lamp_neg,lamp_pos,negation,negative,target,distractor,L,lamp_neg,Y,7/24/2015,11:22:00,0.753999999999997,1,-0.282362910974185,-0.23752603141136527,0.3746167648693195
488,2,2,3,91,cat_neg,cat_neg,cat_pos,negation,negative,target,distractor,L,cat_neg,Y,7/24/2015,11:22:00,0.795000000000001,1,-0.22941316432780384,-0.23752603141136527,0.3746167648693195
489,2,2,3,92,car_pos,car_neg,car_pos,negation,positive,distractor,target,R,car_pos,Y,7/24/2015,11:22:00,1.323,1,0.2799018851328186,-0.23752603141136527,0.3746167648693195
490,2,2,3,93,bicycle_neg,bicycle_neg,bicycle_pos,negation,negative,target,distractor,L,bicycle_neg,Y,7/24/2015,11:22:00,0.879000000000001,1,-0.12897038129695892,-0.23752603141136527,0.3746167648693195
491,2,2,3,94,apple_neg,apple_neg,apple_pos,negation,negative,target,distractor,L,apple_neg,Y,7/24/2015,11:22:00,0.7709999999999979,1,-0.2600669054188103,-0.23752603141136527,0.3746167648693195
492,2,2,3,95,flower_pos,flower_neg,flower_pos,negation,positive,distractor,target,R,flower_pos,Y,7/24/2015,11:22:00,1.945,1,0.6652619770704097,-0.23752603141136527,0.3746167648693195
493,2,2,3,96,teddybear_pos,teddybear_pos,teddybear_neg,negation,positive,target,distractor,L,teddybear_pos,Y,7/24/2015,11:22:00,1.006,1,0.005982071677547469,-0.23752603141136527,0.3746167648693195
494,2,2,3,97,apple_pos,apple_neg,apple_pos,negation,positive,distractor,target,R,apple_pos,Y,7/24/2015,11:22:00,0.633,1,-0.45728485683796083,-0.23752603141136527,0.3746167648693195
495,2,2,3,98,dog_neg,dog_neg,dog_pos,negation,negative,target,distractor,L,dog_neg,Y,7/24/2015,11:22:00,1.06,1,0.058268908123975824,-0.23752603141136527,0.3746167648693195
496,2,2,3,99,bird_neg,bird_neg,bird_pos,negation,negative,target,distractor,L,bird_neg,Y,7/24/2015,11:22:00,0.626,1,-0.46840490788203853,-0.23752603141136527,0.3746167648693195
497,2,2,3,100,cookie_neg,cookie_neg,cookie_pos,negation,negative,target,distractor,L,cookie_neg,Y,7/24/2015,11:22:00,0.517,1,-0.6597124044737079,-0.23752603141136527,0.3746167648693195
498,2,2,3,101,teddybear_neg,teddybear_neg,teddybear_pos,negation,negative,target,distractor,L,teddybear_neg,Y,7/24/2015,11:22:00,0.8969999999999979,1,-0.10869941692334327,-0.23752603141136527,0.3746167648693195
499,2,2,3,102,banana_neg,banana_neg,banana_pos,negation,negative,target,distractor,L,banana_neg,Y,7/24/2015,11:22:00,0.9460000000000011,1,-0.05551270993025765,-0.23752603141136527,0.3746167648693195
500,2,2,3,103,cup_neg,cup_pos,cup_neg,negation,negative,distractor,target,R,cup_neg,Y,7/24/2015,11:22:00,0.906000000000001,1,-0.09871597293915658,-0.23752603141136527,0.3746167648693195
501,2,2,3,104,car_pos,car_neg,car_pos,negation,positive,distractor,target,R,car_pos,Y,7/24/2015,11:22:00,0.837,1,-0.17793120849266178,-0.23752603141136527,0.3746167648693195
502,2,2,3,105,flower_neg,flower_neg,flower_pos,negation,negative,target,distractor,L,flower_neg,Y,7/24/2015,11:22:00,1.117,1,0.11064652008706365,-0.23752603141136527,0.3746167648693195
503,2,2,3,106,cat_pos,cat_neg,cat_pos,negation,positive,distractor,target,R,cat_pos,Y,7/24/2015,11:22:00,0.832,1,-0.1839228381609285,-0.23752603141136527,0.3746167648693195
504,2,2,3,107,lamp_neg,lamp_neg,lamp_pos,negation,negative,target,distractor,L,lamp_neg,Y,7/24/2015,11:22:00,1.32,1,0.27763173659827955,-0.23752603141136527,0.3746167648693195
505,2,2,3,108,bicycle_pos,bicycle_pos,bicycle_neg,negation,positive,target,distractor,L,bicycle_pos,Y,7/24/2015,11:22:00,0.89,1,-0.11653381625595151,-0.23752603141136527,0.3746167648693195
506,2,2,3,109,cup_neg,cup_pos,cup_neg,negation,negative,distractor,target,R,cup_neg,Y,7/24/2015,11:22:00,1.14,1,0.131028262406404,-0.23752603141136527,0.3746167648693195
507,2,2,3,110,cat_neg,cat_pos,cat_neg,negation,negative,distractor,target,R,cat_neg,Y,7/24/2015,11:22:00,1.862,1,0.6216511788548754,-0.23752603141136527,0.3746167648693195
508,2,2,3,111,banana_neg,banana_pos,banana_neg,negation,negative,distractor,target,R,banana_neg,Y,7/24/2015,11:22:00,1.757,1,0.5636078092049601,-0.23752603141136527,0.3746167648693195
510,2,2,3,113,apple_neg,apple_pos,apple_neg,negation,negative,distractor,target,R,apple_neg,Y,7/24/2015,11:22:00,1.399,1,0.3357576956833441,-0.23752603141136527,0.3746167648693195
511,2,2,3,114,car_neg,car_pos,car_neg,negation,negative,distractor,target,R,car_neg,Y,7/24/2015,11:22:00,0.898,1,-0.10758521067993743,-0.23752603141136527,0.3746167648693195
512,2,2,3,115,lamp_neg,lamp_neg,lamp_pos,negation,negative,target,distractor,L,lamp_neg,Y,7/24/2015,11:22:00,1.075,1,0.07232066157962608,-0.23752603141136527,0.3746167648693195
513,2,2,3,116,dog_pos,dog_pos,dog_neg,negation,positive,target,distractor,L,dog_pos,Y,7/24/2015,11:22:00,1.019,1,0.018821754240587667,-0.23752603141136527,0.3746167648693195
514,2,2,3,117,bicycle_pos,bicycle_neg,bicycle_pos,negation,positive,distractor,target,R,bicycle_pos,Y,7/24/2015,11:22:00,0.961,1,-0.0397808700118446,-0.23752603141136527,0.3746167648693195
515,2,2,3,118,cookie_neg,cookie_neg,cookie_pos,negation,negative,target,distractor,L,cookie_neg,Y,7/24/2015,11:22:00,1.248,1,0.22154226994723591,-0.23752603141136527,0.3746167648693195
516,2,2,3,119,teddybear_pos,teddybear_neg,teddybear_pos,negation,positive,distractor,target,R,teddybear_pos,Y,7/24/2015,11:22:00,1.402,1,0.3378997886123983,-0.23752603141136527,0.3746167648693195
517,2,2,3,120,flower_pos,flower_neg,flower_pos,negation,positive,distractor,target,R,flower_pos,Y,7/24/2015,11:22:00,0.851,1,-0.16134315040876293,-0.23752603141136527,0.3746167648693195
518,2,2,3,1,cup_pos,cup_pos,cup_inhib,inhibition,control,target,distractor,L,cup_pos,Y,7/24/2015,11:22:00,1.098,1,0.09349034308733897,-0.23752603141136527,0.3746167648693195
519,2,2,3,2,cup_pos,cup_pos,cup_inhib,inhibition,control,target,distractor,L,cup_pos,Y,7/24/2015,11:22:00,0.735,1,-0.3078847797693004,-0.23752603141136527,0.3746167648693195
520,2,2,3,3,cup_pos,cup_pos,cup_inhib,inhibition,control,target,distractor,L,cup_pos,Y,7/24/2015,11:22:00,0.462,1,-0.7721903879003982,-0.23752603141136527,0.3746167648693195
521,2,2,3,4,cup_pos,cup_inhib,cup_pos,inhibition,control,distractor,target,R,cup_pos,Y,7/24/2015,11:22:00,0.789,1,-0.23698895813626278,-0.23752603141136527,0.3746167648693195
522,2,2,3,5,cup_pos,cup_inhib,cup_pos,inhibition,control,distractor,target,R,cup_pos,Y,7/24/2015,11:22:00,0.417,1,-0.8746690571833357,-0.23752603141136527,0.3746167648693195
523,2,2,3,6,cup_pos,cup_pos,cup_inhib,inhibition,control,target,distractor,L,cup_pos,Y,7/24/2015,11:22:00,0.59,1,-0.527632742082372,-0.23752603141136527,0.3746167648693195
524,2,2,3,7,cup_inhib,cup_inhib,cup_pos,inhibition,inhib,target,distractor,L,cup_inhib,Y,7/24/2015,11:22:00,0.831,1,-0.18512548412668892,-0.23752603141136527,0.3746167648693195
525,2,2,3,8,bird_pos,bird_pos,bird_inhib,inhibition,control,target,distractor,L,bird_pos,Y,7/24/2015,11:22:00,0.855,1,-0.15665381004537685,-0.23752603141136527,0.3746167648693195
526,2,2,3,9,bird_pos,bird_inhib,bird_pos,inhibition,control,distractor,target,R,bird_pos,Y,7/24/2015,11:22:00,0.712,1,-0.3396773675701613,-0.23752603141136527,0.3746167648693195
527,2,2,3,10,bird_pos,bird_inhib,bird_pos,inhibition,control,distractor,target,R,bird_pos,Y,7/24/2015,11:22:00,0.694,1,-0.36528331847533263,-0.23752603141136527,0.3746167648693195
528,2,2,3,11,bird_pos,bird_inhib,bird_pos,inhibition,control,distractor,target,R,bird_pos,Y,7/24/2015,11:22:00,0.423,1,-0.8603830999358592,-0.23752603141136527,0.3746167648693195
529,2,2,3,12,bird_pos,bird_inhib,bird_pos,inhibition,control,distractor,target,R,bird_pos,Y,7/24/2015,11:22:00,0.559,1,-0.5816058058270378,-0.23752603141136527,0.3746167648693195
530,2,2,3,13,bird_pos,bird_inhib,bird_pos,inhibition,control,distractor,target,R,bird_pos,Y,7/24/2015,11:22:00,0.615,1,-0.4861330111756192,-0.23752603141136527,0.3746167648693195
531,2,2,3,14,bird_inhib,bird_pos,bird_inhib,inhibition,inhib,distractor,target,R,bird_inhib,Y,7/24/2015,11:22:00,0.657,1,-0.4200712604975265,-0.23752603141136527,0.3746167648693195
532,2,2,3,15,lamp_pos,lamp_pos,lamp_inhib,inhibition,control,target,distractor,L,lamp_pos,Y,7/24/2015,11:22:00,0.935,1,-0.06720874969344999,-0.23752603141136527,0.3746167648693195
533,2,2,3,16,lamp_pos,lamp_inhib,lamp_pos,inhibition,control,distractor,target,R,lamp_pos,Y,7/24/2015,11:22:00,0.572,1,-0.5586162876023393,-0.23752603141136527,0.3746167648693195
534,2,2,3,17,lamp_pos,lamp_pos,lamp_inhib,inhibition,control,target,distractor,L,lamp_pos,Y,7/24/2015,11:22:00,0.444,1,-0.8119307165499123,-0.23752603141136527,0.3746167648693195
535,2,2,3,18,lamp_pos,lamp_pos,lamp_inhib,inhibition,control,target,distractor,L,lamp_pos,Y,7/24/2015,11:22:00,0.462,1,-0.7721903879003982,-0.23752603141136527,0.3746167648693195
536,2,2,3,19,lamp_pos,lamp_inhib,lamp_pos,inhibition,control,distractor,target,R,lamp_pos,Y,7/24/2015,11:22:00,0.471,1,-0.7528971849657193,-0.23752603141136527,0.3746167648693195
