X1,subid,list,game.order,trial.num,word,leftpic,rightpic,game,trial.type,leftpic.type,rightpic.type,side.chosen,pic.chosen,response,date,timestamp,rt,gender,age,language,response_numeric,log_rt,m_log_rt,sd_log_rt,reason_removed
29,1,1,5,116,flower_implic,flower_control,flower_implic,implicature,implicature,distractor,target,R,flower_implic,Y,2/19/2019,10:43:00,4.318,M,65,English,1,1.4627923320926155,-0.30343137515179,0.375638819900667,bad_rt
504,2,1,2,39,banana_implic,banana_control,banana_implic,implicature,implicature,distractor,target,L,banana_control,N,2/19/2019,16:30:00,3.282,M,35,English,0,1.188452992667899,-0.30343137515179,0.375638819900667,bad_rt
563,2,1,2,131,apple_pos,apple_pos,apple_inhib,inhibition,control,target,distractor,L,apple_pos,Y,2/19/2019,16:30:00,5,M,35,English,1,1.6094379124341003,-0.30343137515179,0.375638819900667,bad_rt
627,2,1,2,42,cup_neg,cup_neg,cup_pos,negation,negative,target,distractor,L,cup_neg,Y,2/19/2019,16:30:00,2.544,M,35,English,1,0.9337376454778757,-0.30343137515179,0.375638819900667,bad_rt
628,2,1,2,43,bicycle_pos,bicycle_pos,bicycle_neg,negation,positive,target,distractor,R,bicycle_neg,N,2/19/2019,16:30:00,2.55,M,35,English,0,0.9360933591703348,-0.30343137515179,0.375638819900667,bad_rt
641,2,1,2,56,lamp_neg,lamp_neg,lamp_pos,negation,negative,target,distractor,R,lamp_pos,N,2/19/2019,16:30:00,0.212999999999997,M,35,English,0,-1.546463113272726,-0.30343137515179,0.375638819900667,bad_rt
642,2,1,2,57,bicycle_neg,bicycle_neg,bicycle_pos,negation,negative,target,distractor,R,bicycle_pos,N,2/19/2019,16:30:00,0.23200000000000098,M,35,English,0,-1.461017907315823,-0.30343137515179,0.375638819900667,bad_rt
649,2,1,2,64,bicycle_neg,bicycle_neg,bicycle_pos,negation,negative,target,distractor,R,bicycle_pos,N,2/19/2019,16:30:00,0.221000000000001,M,35,English,0,-1.5095925774643797,-0.30343137515179,0.375638819900667,bad_rt
668,2,1,2,82,bird_control,bird_control,bird_foil,implicature,unambiguous,target,distractor,L,bird_control,Y,2/19/2019,16:30:00,6.392,M,35,English,1,1.8550472084639735,-0.30343137515179,0.375638819900667,bad_rt
724,2,1,2,18,apple_pos,apple_neg,apple_pos,negation,positive,distractor,target,R,apple_pos,Y,2/19/2019,16:30:00,2.81,M,35,English,1,1.0331844833456545,-0.30343137515179,0.375638819900667,bad_rt
726,2,1,2,20,cup_neg,cup_pos,cup_neg,negation,negative,distractor,target,R,cup_neg,Y,2/19/2019,16:30:00,2.339,M,35,English,1,0.849723487602042,-0.30343137515179,0.375638819900667,bad_rt
729,2,1,2,23,banana_pos,banana_pos,banana_neg,negation,positive,target,distractor,L,banana_pos,Y,2/19/2019,16:30:00,2.425,M,35,English,1,0.8858315243894465,-0.30343137515179,0.375638819900667,bad_rt
734,2,1,2,28,bird_pos,bird_pos,bird_neg,negation,positive,target,distractor,L,bird_pos,Y,2/19/2019,16:30:00,0.202,M,35,English,1,-1.5994875815809322,-0.30343137515179,0.375638819900667,bad_rt
735,2,1,2,29,teddybear_pos,teddybear_neg,teddybear_pos,negation,positive,distractor,target,R,teddybear_pos,Y,2/19/2019,16:30:00,0.233,M,35,English,1,-1.4567168254164364,-0.30343137515179,0.375638819900667,bad_rt
756,2,1,2,90,cat_neg,cat_pos,cat_neg,negation,negative,distractor,target,R,cat_neg,Y,2/19/2019,16:30:00,2.606,M,35,English,1,0.9578164787026533,-0.30343137515179,0.375638819900667,bad_rt
772,2,1,2,66,lamp_neg,lamp_pos,lamp_neg,negation,negative,distractor,target,L,lamp_pos,N,2/19/2019,16:30:00,0.22199999999999698,M,35,English,0,-1.5050778971098713,-0.30343137515179,0.375638819900667,bad_rt
775,2,1,2,69,bird_neg,bird_pos,bird_neg,negation,negative,distractor,target,L,bird_pos,N,2/19/2019,16:30:00,0.224,M,35,English,0,-1.4961092271270973,-0.30343137515179,0.375638819900667,bad_rt
818,3,1,4,34,cookie_control,cookie_foil,cookie_control,implicature,unambiguous,distractor,target,R,cookie_control,Y,2/16/2019,02:22:00,6.621,M,45,english,1,1.890246415942709,-0.30343137515179,0.375638819900667,bad_rt
1012,3,1,4,30,cookie_neg,cookie_neg,cookie_pos,negation,negative,target,distractor,L,cookie_neg,Y,2/16/2019,02:22:00,2.354,M,45,english,1,0.856116008838085,-0.30343137515179,0.375638819900667,bad_rt
1015,3,1,4,69,bird_pos,bird_pos,bird_inhib,inhibition,control,target,distractor,R,bird_inhib,N,2/16/2019,02:22:00,6.95,M,45,english,0,1.9387416595767009,-0.30343137515179,0.375638819900667,bad_rt
1226,4,2,3,91,flower_implic,flower_implic,flower_control,implicature,implicature,target,distractor,R,flower_control,N,2/19/2019,12:52:00,5.529,M,25,English,0,1.7100069673557958,-0.30343137515179,0.375638819900667,bad_rt
1259,4,2,3,35,banana_pos,banana_pos,banana_neg,negation,positive,target,distractor,L,banana_pos,Y,2/19/2019,12:52:00,7.532,M,25,English,1,2.019160610794906,-0.30343137515179,0.375638819900667,bad_rt
1264,4,2,3,39,dog_pos,dog_neg,dog_pos,negation,positive,distractor,target,R,dog_pos,Y,2/19/2019,12:52:00,8.392,M,25,English,1,2.127278871093996,-0.30343137515179,0.375638819900667,bad_rt
1283,4,2,3,59,cat_neg,cat_pos,cat_neg,negation,negative,distractor,target,R,cat_neg,Y,2/19/2019,12:52:00,6.096,M,25,English,1,1.807632818384345,-0.30343137515179,0.375638819900667,bad_rt
1315,4,2,3,91,cat_pos,cat_pos,cat_neg,negation,positive,target,distractor,L,cat_pos,Y,2/19/2019,12:52:00,3.852,M,25,English,1,1.348592493935879,-0.30343137515179,0.375638819900667,bad_rt
1316,4,2,3,92,car_neg,car_pos,car_neg,negation,negative,distractor,target,R,car_neg,Y,2/19/2019,12:52:00,4.696,M,25,English,1,1.5467110825257953,-0.30343137515179,0.375638819900667,bad_rt
1317,4,2,3,93,bicycle_neg,bicycle_neg,bicycle_pos,negation,negative,target,distractor,L,bicycle_neg,Y,2/19/2019,12:52:00,5.182,M,25,English,1,1.6451910821399183,-0.30343137515179,0.375638819900667,bad_rt
1318,4,2,3,94,apple_neg,apple_neg,apple_pos,negation,negative,target,distractor,L,apple_neg,Y,2/19/2019,12:52:00,3.681,M,25,English,1,1.303184454396884,-0.30343137515179,0.375638819900667,bad_rt
1326,4,2,3,102,banana_neg,banana_pos,banana_neg,negation,negative,distractor,target,R,banana_neg,Y,2/19/2019,12:52:00,2.617,M,25,English,1,0.9620286235480088,-0.30343137515179,0.375638819900667,bad_rt
1359,4,2,3,15,lamp_pos,lamp_pos,lamp_inhib,inhibition,control,target,distractor,L,lamp_pos,Y,2/19/2019,12:52:00,6.267,M,25,English,1,1.8352977712425385,-0.30343137515179,0.375638819900667,bad_rt
1395,4,2,3,51,banana_pos,banana_inhib,banana_pos,inhibition,control,distractor,target,R,banana_pos,Y,2/19/2019,12:52:00,9.869,M,25,English,1,2.28939853118987,-0.30343137515179,0.375638819900667,bad_rt
1461,4,2,3,117,teddybear_pos,teddybear_pos,teddybear_inhib,inhibition,control,target,distractor,L,teddybear_pos,Y,2/19/2019,12:52:00,4.281,M,25,English,1,1.454186627162809,-0.30343137515179,0.375638819900667,bad_rt
1465,4,2,3,121,cat_pos,cat_inhib,cat_pos,inhibition,control,distractor,target,R,cat_pos,Y,2/19/2019,12:52:00,4.497,M,25,English,1,1.5034105077885702,-0.30343137515179,0.375638819900667,bad_rt
1544,4,2,3,44,cat_implic,cat_implic,cat_control,implicature,implicature,target,distractor,R,cat_control,N,2/19/2019,12:52:00,3.189,M,25,English,0,1.1597073880279205,-0.30343137515179,0.375638819900667,bad_rt
1555,4,2,3,55,teddybear_implic,teddybear_implic,teddybear_control,implicature,implicature,target,distractor,L,teddybear_implic,Y,2/19/2019,12:52:00,8.681,M,25,English,1,2.161136729409671,-0.30343137515179,0.375638819900667,bad_rt
1556,4,2,3,56,cookie_control,cookie_foil,cookie_control,implicature,unambiguous,distractor,target,R,cookie_control,Y,2/19/2019,12:52:00,5.721,M,25,English,1,1.7441436152863916,-0.30343137515179,0.375638819900667,bad_rt
2296,6,1,1,6,teddybear_implic,teddybear_implic,teddybear_control,implicature,implicature,target,distractor,L,teddybear_implic,Y,2/20/2019,04:02:00,2.339,F,25,english,1,0.849723487602042,-0.30343137515179,0.375638819900667,bad_rt
3197,9,1,2,81,dog_control,dog_foil,dog_control,implicature,unambiguous,distractor,target,R,dog_control,Y,2/19/2019,16:50:00,2.58,F,45,English,1,0.9477893989335261,-0.30343137515179,0.375638819900667,bad_rt
3510,9,1,2,30,cookie_neg,cookie_neg,cookie_pos,negation,negative,target,distractor,L,cookie_neg,Y,2/19/2019,16:50:00,3.351,F,45,English,1,1.2092588087551734,-0.30343137515179,0.375638819900667,bad_rt
3993,11,2,1,1,cup_pos,cup_pos,cup_inhib,inhibition,control,target,distractor,L,cup_pos,Y,2/19/2019,11:08:00,3.74,NA,35,english,1,1.3190856114264407,-0.30343137515179,0.375638819900667,bad_rt
3994,11,2,1,2,cup_pos,cup_inhib,cup_pos,inhibition,control,distractor,target,L,cup_inhib,N,2/19/2019,11:08:00,2.753,NA,35,english,0,1.0126912261604704,-0.30343137515179,0.375638819900667,bad_rt
4128,11,2,1,136,bicycle_pos,bicycle_pos,bicycle_inhib,inhibition,control,target,distractor,R,bicycle_inhib,N,2/19/2019,11:08:00,0.217,NA,35,english,0,-1.5278579254416775,-0.30343137515179,0.375638819900667,bad_rt
4137,11,2,1,145,cup_pos,cup_inhib,cup_pos,inhibition,control,distractor,target,L,cup_inhib,N,2/19/2019,11:08:00,3.202,NA,35,english,0,1.1637756145745228,-0.30343137515179,0.375638819900667,bad_rt
4184,11,2,1,33,bird_neg,bird_pos,bird_neg,negation,negative,distractor,target,L,bird_pos,N,2/19/2019,11:08:00,5.599,NA,35,english,0,1.7225880103667564,-0.30343137515179,0.375638819900667,bad_rt
4268,11,2,1,118,cat_control,cat_control,cat_foil,implicature,unambiguous,target,distractor,L,cat_control,Y,2/19/2019,11:08:00,5.129,NA,35,english,1,1.6349107084071313,-0.30343137515179,0.375638819900667,bad_rt
4315,11,2,1,84,banana_implic,banana_control,banana_implic,implicature,implicature,distractor,target,L,banana_control,N,2/19/2019,11:08:00,8.072,NA,35,english,0,2.088401283051308,-0.30343137515179,0.375638819900667,bad_rt
4327,11,2,1,96,cup_implic,cup_implic,cup_control,implicature,implicature,target,distractor,L,cup_implic,Y,2/19/2019,11:08:00,0.211,NA,35,english,1,-1.5558971455060706,-0.30343137515179,0.375638819900667,bad_rt
4617,12,1,1,69,bird_pos,bird_neg,bird_pos,negation,positive,distractor,target,R,bird_pos,Y,2/15/2019,13:14:00,2.34,M,35,English,1,0.85015092936961,-0.30343137515179,0.375638819900667,bad_rt
4792,13,2,4,89,cookie_neg,cookie_pos,cookie_neg,negation,negative,distractor,target,L,cookie_pos,N,2/15/2019,13:20:00,0.238,M,35,English,0,-1.4354846053106625,-0.30343137515179,0.375638819900667,bad_rt
5188,14,2,6,1,cookie_neg,cookie_neg,cookie_pos,negation,negative,target,distractor,L,cookie_neg,Y,2/19/2019,12:39:00,2.494,M,45,English,1,0.9138878472578448,-0.30343137515179,0.375638819900667,bad_rt
5308,14,2,6,1,cat_control,cat_control,cat_foil,implicature,unambiguous,target,distractor,L,cat_control,Y,2/19/2019,12:39:00,2.373,M,45,English,1,0.8641549774536266,-0.30343137515179,0.375638819900667,bad_rt
5311,14,2,6,4,teddybear_implic,teddybear_implic,teddybear_control,implicature,implicature,target,distractor,L,teddybear_implic,Y,2/19/2019,12:39:00,2.922,M,45,English,1,1.0722683133285078,-0.30343137515179,0.375638819900667,bad_rt
5312,14,2,6,5,bird_control,bird_control,bird_foil,implicature,unambiguous,target,distractor,L,bird_control,Y,2/19/2019,12:39:00,2.676,M,45,English,1,0.984323142265982,-0.30343137515179,0.375638819900667,bad_rt
5410,14,2,6,103,car_implic,car_implic,car_control,implicature,implicature,target,distractor,L,car_implic,Y,2/19/2019,12:39:00,2.57,M,45,English,1,0.9439058989071284,-0.30343137515179,0.375638819900667,bad_rt
5460,14,2,6,33,cat_pos,cat_pos,cat_inhib,inhibition,control,target,distractor,L,cat_pos,Y,2/19/2019,12:39:00,2.668,M,45,English,1,0.9813291280533774,-0.30343137515179,0.375638819900667,bad_rt
5466,14,2,6,39,bicycle_pos,bicycle_pos,bicycle_inhib,inhibition,control,target,distractor,L,bicycle_pos,Y,2/19/2019,12:39:00,3.937,M,45,English,1,1.3704190119616004,-0.30343137515179,0.375638819900667,bad_rt
6528,17,2,5,36,car_neg,car_pos,car_neg,negation,negative,distractor,target,R,car_neg,Y,2/19/2019,18:47:00,2.475,F,65,English,1,0.9062403960206536,-0.30343137515179,0.375638819900667,bad_rt
6787,18,2,4,108,bicycle_neg,bicycle_pos,bicycle_neg,negation,negative,distractor,target,R,bicycle_neg,Y,2/19/2019,16:07:00,3.34,M,35,english,1,1.205970806988609,-0.30343137515179,0.375638819900667,bad_rt
6788,18,2,4,109,cup_neg,cup_neg,cup_pos,negation,negative,target,distractor,L,cup_neg,Y,2/19/2019,16:07:00,3.779,M,35,english,1,1.3294594243673519,-0.30343137515179,0.375638819900667,bad_rt
6790,18,2,4,111,banana_neg,banana_neg,banana_pos,negation,negative,target,distractor,L,banana_neg,Y,2/19/2019,16:07:00,3.347,M,35,english,1,1.2080644222291896,-0.30343137515179,0.375638819900667,bad_rt
6793,18,2,4,114,car_neg,car_pos,car_neg,negation,negative,distractor,target,R,car_neg,Y,2/19/2019,16:07:00,5.004,M,35,english,1,1.6102375926046646,-0.30343137515179,0.375638819900667,bad_rt
6794,18,2,4,115,lamp_pos,lamp_neg,lamp_pos,negation,positive,distractor,target,L,lamp_neg,N,2/19/2019,16:07:00,4.136,M,35,english,0,1.419729137206128,-0.30343137515179,0.375638819900667,bad_rt
6963,18,2,4,71,apple_pos,apple_pos,apple_inhib,inhibition,control,target,distractor,L,apple_pos,Y,2/19/2019,16:07:00,2.716,M,35,english,1,0.9991602096964498,-0.30343137515179,0.375638819900667,bad_rt
7097,18,2,4,1,cat_control,cat_control,cat_foil,implicature,unambiguous,target,distractor,R,cat_foil,N,2/19/2019,16:07:00,3.221,M,35,english,0,1.1696918703490617,-0.30343137515179,0.375638819900667,bad_rt
7561,20,1,5,2,cup_control,cup_foil,cup_control,implicature,unambiguous,distractor,target,R,cup_control,Y,2/19/2019,13:40:00,5.901,M,35,English,1,1.7751218280750316,-0.30343137515179,0.375638819900667,bad_rt
7582,20,1,5,23,cup_implic,cup_control,cup_implic,implicature,implicature,distractor,target,R,cup_implic,Y,2/19/2019,13:40:00,3.442,M,35,English,1,1.2360526977893478,-0.30343137515179,0.375638819900667,bad_rt
7639,20,1,5,80,bicycle_implic,bicycle_implic,bicycle_control,implicature,implicature,target,distractor,R,bicycle_control,N,2/19/2019,13:40:00,3.02,M,35,English,0,1.1052568313867783,-0.30343137515179,0.375638819900667,bad_rt
7649,20,1,5,90,flower_implic,flower_control,flower_implic,implicature,implicature,distractor,target,R,flower_implic,Y,2/19/2019,13:40:00,2.588,M,35,English,1,0.9508853766386541,-0.30343137515179,0.375638819900667,bad_rt
7924,21,1,3,89,banana_pos,banana_pos,banana_inhib,inhibition,control,target,distractor,L,banana_pos,Y,2/19/2019,19:01:00,0.224,M,35,eng,1,-1.4961092271270973,-0.30343137515179,0.375638819900667,bad_rt
7951,21,1,3,80,cookie_pos,cookie_pos,cookie_inhib,inhibition,control,target,distractor,L,cookie_pos,Y,2/19/2019,19:01:00,0.23,M,35,eng,1,-1.4696759700589417,-0.30343137515179,0.375638819900667,bad_rt
7965,21,1,3,99,lamp_control,lamp_foil,lamp_control,implicature,unambiguous,distractor,target,R,lamp_control,Y,2/19/2019,19:01:00,0.238,M,35,eng,1,-1.4354846053106625,-0.30343137515179,0.375638819900667,bad_rt
7966,21,1,3,100,bicycle_implic,bicycle_implic,bicycle_control,implicature,implicature,target,distractor,L,bicycle_implic,Y,2/19/2019,19:01:00,0.214,M,35,eng,1,-1.5417792639602856,-0.30343137515179,0.375638819900667,bad_rt
7967,21,1,3,101,dog_control,dog_control,dog_foil,implicature,unambiguous,target,distractor,R,dog_foil,N,2/19/2019,19:01:00,0.219,M,35,eng,0,-1.5186835491656363,-0.30343137515179,0.375638819900667,bad_rt
7973,21,1,3,107,cup_implic,cup_control,cup_implic,implicature,implicature,distractor,target,R,cup_implic,Y,2/19/2019,19:01:00,0.233,M,35,eng,1,-1.4567168254164364,-0.30343137515179,0.375638819900667,bad_rt
7981,21,1,3,115,banana_implic,banana_implic,banana_control,implicature,implicature,target,distractor,L,banana_implic,Y,2/19/2019,19:01:00,0.225,M,35,eng,1,-1.491654876777717,-0.30343137515179,0.375638819900667,bad_rt
7987,21,1,3,32,cup_pos,cup_neg,cup_pos,negation,positive,distractor,target,L,cup_neg,N,2/19/2019,19:01:00,0.234,M,35,eng,0,-1.4524341636244356,-0.30343137515179,0.375638819900667,bad_rt
8003,21,1,3,48,apple_neg,apple_pos,apple_neg,negation,negative,distractor,target,L,apple_pos,N,2/19/2019,19:01:00,0.23899999999999802,M,35,eng,0,-1.4312917270506347,-0.30343137515179,0.375638819900667,bad_rt
8052,21,1,3,97,car_pos,car_neg,car_pos,negation,positive,distractor,target,R,car_pos,Y,2/19/2019,19:01:00,0.207,M,35,eng,1,-1.575036485716768,-0.30343137515179,0.375638819900667,bad_rt
8066,21,1,3,111,banana_pos,banana_neg,banana_pos,negation,positive,distractor,target,R,banana_pos,Y,2/19/2019,19:01:00,0.227,M,35,eng,1,-1.4828052615007343,-0.30343137515179,0.375638819900667,bad_rt
8067,21,1,3,112,cookie_pos,cookie_neg,cookie_pos,negation,positive,distractor,target,L,cookie_neg,N,2/19/2019,19:01:00,0.209,M,35,eng,0,-1.565421027017326,-0.30343137515179,0.375638819900667,bad_rt
8069,21,1,3,114,lamp_neg,lamp_pos,lamp_neg,negation,negative,distractor,target,R,lamp_neg,Y,2/19/2019,19:01:00,0.216999999999997,M,35,eng,1,-1.5278579254416913,-0.30343137515179,0.375638819900667,bad_rt
8070,21,1,3,115,apple_pos,apple_pos,apple_neg,negation,positive,target,distractor,L,apple_pos,Y,2/19/2019,19:01:00,0.221,M,35,eng,1,-1.5095925774643841,-0.30343137515179,0.375638819900667,bad_rt
8082,21,1,3,7,apple_inhib,apple_inhib,apple_pos,inhibition,inhib,target,distractor,R,apple_pos,N,2/19/2019,19:01:00,0.2,M,35,eng,0,-1.6094379124341003,-0.30343137515179,0.375638819900667,bad_rt
8085,21,1,3,10,car_pos,car_pos,car_inhib,inhibition,control,target,distractor,R,car_inhib,N,2/19/2019,19:01:00,0.219,M,35,eng,0,-1.5186835491656363,-0.30343137515179,0.375638819900667,bad_rt
8092,21,1,3,17,dog_pos,dog_inhib,dog_pos,inhibition,control,distractor,target,L,dog_inhib,N,2/19/2019,19:01:00,0.214,M,35,eng,0,-1.5417792639602856,-0.30343137515179,0.375638819900667,bad_rt
8103,21,1,3,29,banana_pos,banana_inhib,banana_pos,inhibition,control,distractor,target,R,banana_pos,Y,2/19/2019,19:01:00,0.234,M,35,eng,1,-1.4524341636244356,-0.30343137515179,0.375638819900667,bad_rt
8185,21,1,3,111,lamp_pos,lamp_inhib,lamp_pos,inhibition,control,distractor,target,R,lamp_pos,Y,2/19/2019,19:01:00,0.206,M,35,eng,1,-1.579879110192556,-0.30343137515179,0.375638819900667,bad_rt
8205,21,1,3,131,flower_inhib,flower_inhib,flower_pos,inhibition,inhib,target,distractor,L,flower_inhib,Y,2/19/2019,19:01:00,0.232,M,35,eng,1,-1.4610179073158271,-0.30343137515179,0.375638819900667,bad_rt
8207,21,1,3,133,apple_pos,apple_pos,apple_inhib,inhibition,control,target,distractor,L,apple_pos,Y,2/19/2019,19:01:00,0.227,M,35,eng,1,-1.4828052615007343,-0.30343137515179,0.375638819900667,bad_rt
8208,21,1,3,134,apple_pos,apple_inhib,apple_pos,inhibition,control,distractor,target,L,apple_inhib,N,2/19/2019,19:01:00,0.2,M,35,eng,0,-1.6094379124341003,-0.30343137515179,0.375638819900667,bad_rt
8216,21,1,3,142,dog_pos,dog_inhib,dog_pos,inhibition,control,distractor,target,L,dog_inhib,N,2/19/2019,19:01:00,0.21,M,35,eng,0,-1.5606477482646683,-0.30343137515179,0.375638819900667,bad_rt
8222,21,1,3,148,bird_pos,bird_pos,bird_inhib,inhibition,control,target,distractor,R,bird_inhib,N,2/19/2019,19:01:00,0.222,M,35,eng,0,-1.5050778971098575,-0.30343137515179,0.375638819900667,bad_rt
8277,21,1,3,87,bicycle_control,bicycle_foil,bicycle_control,implicature,unambiguous,distractor,target,L,bicycle_foil,N,2/19/2019,19:01:00,0.23,M,35,eng,0,-1.4696759700589417,-0.30343137515179,0.375638819900667,bad_rt
8311,21,1,3,26,banana_neg,banana_pos,banana_neg,negation,negative,distractor,target,R,banana_neg,Y,2/19/2019,19:01:00,0.215000000000001,M,35,eng,1,-1.5371172508544697,-0.30343137515179,0.375638819900667,bad_rt
8772,23,1,3,35,flower_neg,flower_neg,flower_pos,negation,negative,target,distractor,L,flower_neg,Y,2/15/2019,14:07:00,2.688,F,45,english,1,0.9887974226609032,-0.30343137515179,0.375638819900667,bad_rt
10597,27,1,4,43,bicycle_neg,bicycle_pos,bicycle_neg,negation,negative,distractor,target,R,bicycle_neg,Y,2/19/2019,16:21:00,2.774,M,35,English,1,1.0202903218926398,-0.30343137515179,0.375638819900667,bad_rt
10630,27,1,4,36,lamp_neg,lamp_neg,lamp_pos,negation,negative,target,distractor,L,lamp_neg,Y,2/19/2019,16:21:00,2.907,M,35,English,1,1.067121621576739,-0.30343137515179,0.375638819900667,bad_rt
11448,29,2,3,15,banana_neg,banana_neg,banana_pos,negation,negative,target,distractor,L,banana_neg,Y,2/19/2019,15:09:00,2.622,F,65,english,1,0.9639373853415081,-0.30343137515179,0.375638819900667,bad_rt
11645,30,2,2,137,cup_pos,cup_inhib,cup_pos,inhibition,control,distractor,target,R,cup_pos,Y,2/13/2019,18:18:00,4.452,M,35,english,1,1.4933534334132983,-0.30343137515179,0.375638819900667,bad_rt
11687,30,2,2,23,bird_control,bird_control,bird_foil,implicature,unambiguous,target,distractor,L,bird_control,Y,2/13/2019,18:18:00,2.292,M,35,english,1,0.8294247988524931,-0.30343137515179,0.375638819900667,bad_rt
12265,32,1,4,131,flower_pos,flower_pos,flower_inhib,inhibition,control,target,distractor,L,flower_pos,Y,2/19/2019,17:19:00,3.8,F,45,English,1,1.33500106673234,-0.30343137515179,0.375638819900667,bad_rt
12267,32,1,4,133,apple_pos,apple_pos,apple_inhib,inhibition,control,target,distractor,L,apple_pos,Y,2/19/2019,17:19:00,6.805,F,45,English,1,1.9176576361034294,-0.30343137515179,0.375638819900667,bad_rt
12417,32,1,4,117,car_control,car_control,car_foil,implicature,unambiguous,target,distractor,L,car_control,Y,2/19/2019,17:19:00,2.562,F,45,English,1,0.9407882034745424,-0.30343137515179,0.375638819900667,bad_rt
12528,32,1,4,73,bicycle_neg,bicycle_neg,bicycle_pos,negation,negative,target,distractor,R,bicycle_pos,N,2/19/2019,17:19:00,2.585,F,45,English,0,0.9497255079603925,-0.30343137515179,0.375638819900667,bad_rt
12540,32,1,4,85,teddybear_pos,teddybear_neg,teddybear_pos,negation,positive,distractor,target,R,teddybear_pos,Y,2/19/2019,17:19:00,2.389,F,45,English,1,0.8708748683436724,-0.30343137515179,0.375638819900667,bad_rt
12542,32,1,4,87,apple_neg,apple_pos,apple_neg,negation,negative,distractor,target,L,apple_pos,N,2/19/2019,17:19:00,5.619,F,45,English,0,1.7261537121300612,-0.30343137515179,0.375638819900667,bad_rt
12599,32,1,4,23,banana_neg,banana_pos,banana_neg,negation,negative,distractor,target,R,banana_neg,Y,2/19/2019,17:19:00,4.268,F,45,English,1,1.4511453334395068,-0.30343137515179,0.375638819900667,bad_rt
12676,33,1,6,103,teddybear_implic,teddybear_control,teddybear_implic,implicature,implicature,distractor,target,R,teddybear_implic,Y,2/15/2019,14:26:00,0.226,M,35,English,1,-1.487220279709851,-0.30343137515179,0.375638819900667,bad_rt
12746,33,1,6,50,teddybear_pos,teddybear_pos,teddybear_neg,negation,positive,target,distractor,R,teddybear_neg,N,2/15/2019,14:26:00,0.2,M,35,English,0,-1.6094379124341003,-0.30343137515179,0.375638819900667,bad_rt
12755,33,1,6,59,flower_pos,flower_neg,flower_pos,negation,positive,distractor,target,R,flower_pos,Y,2/15/2019,14:26:00,0.204,M,35,English,1,-1.5896352851379207,-0.30343137515179,0.375638819900667,bad_rt
12757,33,1,6,61,flower_pos,flower_neg,flower_pos,negation,positive,distractor,target,L,flower_neg,N,2/15/2019,14:26:00,0.218,M,35,English,0,-1.523260216193048,-0.30343137515179,0.375638819900667,bad_rt
12760,33,1,6,64,bicycle_pos,bicycle_neg,bicycle_pos,negation,positive,distractor,target,L,bicycle_neg,N,2/15/2019,14:26:00,0.211,M,35,English,0,-1.5558971455060706,-0.30343137515179,0.375638819900667,bad_rt
12870,33,1,6,54,dog_control,dog_control,dog_foil,implicature,unambiguous,target,distractor,R,dog_foil,N,2/15/2019,14:26:00,0.21,M,35,English,0,-1.5606477482646683,-0.30343137515179,0.375638819900667,bad_rt
12887,33,1,6,72,bird_pos,bird_pos,bird_inhib,inhibition,control,target,distractor,R,bird_inhib,N,2/15/2019,14:26:00,0.206,M,35,English,0,-1.579879110192556,-0.30343137515179,0.375638819900667,bad_rt
12921,33,1,6,106,bicycle_inhib,bicycle_pos,bicycle_inhib,inhibition,inhib,distractor,target,R,bicycle_inhib,Y,2/15/2019,14:26:00,0.222,M,35,English,1,-1.5050778971098575,-0.30343137515179,0.375638819900667,bad_rt
12963,33,1,6,27,banana_pos,banana_pos,banana_inhib,inhibition,control,target,distractor,L,banana_pos,Y,2/15/2019,14:26:00,0.222,M,35,English,1,-1.5050778971098575,-0.30343137515179,0.375638819900667,bad_rt
12966,33,1,6,30,banana_pos,banana_inhib,banana_pos,inhibition,control,distractor,target,R,banana_pos,Y,2/15/2019,14:26:00,0.214,M,35,English,1,-1.5417792639602856,-0.30343137515179,0.375638819900667,bad_rt
12977,33,1,6,41,cat_pos,cat_pos,cat_inhib,inhibition,control,target,distractor,L,cat_pos,Y,2/15/2019,14:26:00,0.211,M,35,English,1,-1.5558971455060706,-0.30343137515179,0.375638819900667,bad_rt
13082,34,2,1,38,banana_neg,banana_pos,banana_neg,negation,negative,distractor,target,R,banana_neg,Y,2/19/2019,17:21:00,3.266,M,17,English,1,1.1835659945482733,-0.30343137515179,0.375638819900667,bad_rt
13248,34,2,1,1,cookie_neg,cookie_neg,cookie_pos,negation,negative,target,distractor,L,cookie_neg,Y,2/19/2019,17:21:00,2.415,M,17,English,1,0.881699287104536,-0.30343137515179,0.375638819900667,bad_rt
13281,34,2,1,34,apple_control,apple_foil,apple_control,implicature,unambiguous,distractor,target,R,apple_control,Y,2/19/2019,17:21:00,2.862,M,17,English,1,1.0515206811342592,-0.30343137515179,0.375638819900667,bad_rt
13355,34,2,1,107,lamp_neg,lamp_pos,lamp_neg,negation,negative,distractor,target,R,lamp_neg,Y,2/19/2019,17:21:00,4.572,M,17,English,1,1.5199507459325643,-0.30343137515179,0.375638819900667,bad_rt
13369,34,2,1,1,cat_control,cat_foil,cat_control,implicature,unambiguous,distractor,target,R,cat_control,Y,2/19/2019,17:21:00,4.305,M,17,English,1,1.459777137879694,-0.30343137515179,0.375638819900667,bad_rt
13428,34,2,1,100,dog_control,dog_control,dog_foil,implicature,unambiguous,target,distractor,R,dog_foil,N,2/19/2019,17:21:00,9.848,M,17,English,0,2.2872683888821523,-0.30343137515179,0.375638819900667,bad_rt
13435,34,2,1,107,flower_implic,flower_implic,flower_control,implicature,implicature,target,distractor,L,flower_implic,Y,2/19/2019,17:21:00,3.44,M,17,English,1,1.235471471385307,-0.30343137515179,0.375638819900667,bad_rt
13440,34,2,1,112,bird_control,bird_foil,bird_control,implicature,unambiguous,distractor,target,R,bird_control,Y,2/19/2019,17:21:00,2.518,M,17,English,1,0.9234649356221554,-0.30343137515179,0.375638819900667,bad_rt
13448,34,2,1,80,dog_control,dog_foil,dog_control,implicature,unambiguous,distractor,target,R,dog_control,Y,2/19/2019,17:21:00,2.346,M,17,English,1,0.8527117502312838,-0.30343137515179,0.375638819900667,bad_rt
13483,35,2,1,2,flower_neg,flower_pos,flower_neg,negation,negative,distractor,target,L,flower_pos,N,2/19/2019,18:41:00,2.658,F,35,english,0,0.9775739602910536,-0.30343137515179,0.375638819900667,bad_rt
13484,35,2,1,3,cat_neg,cat_pos,cat_neg,negation,negative,distractor,target,L,cat_pos,N,2/19/2019,18:41:00,2.921,F,35,english,0,1.0719260234056038,-0.30343137515179,0.375638819900667,bad_rt
13485,35,2,1,4,bicycle_pos,bicycle_pos,bicycle_neg,negation,positive,target,distractor,L,bicycle_pos,Y,2/19/2019,18:41:00,6.202,F,35,english,1,1.8248718206782573,-0.30343137515179,0.375638819900667,bad_rt
13504,35,2,1,104,cookie_implic,cookie_implic,cookie_control,implicature,implicature,target,distractor,L,cookie_implic,Y,2/19/2019,18:41:00,2.296,F,35,english,1,0.8311684784573199,-0.30343137515179,0.375638819900667,bad_rt
13537,35,2,1,49,banana_pos,banana_inhib,banana_pos,inhibition,control,distractor,target,R,banana_pos,Y,2/19/2019,18:41:00,2.735,F,35,english,1,1.0061314358739444,-0.30343137515179,0.375638819900667,bad_rt
13653,35,2,1,9,apple_neg,apple_neg,apple_pos,negation,negative,target,distractor,L,apple_neg,Y,2/19/2019,18:41:00,4.672,F,35,english,1,1.5415872455259259,-0.30343137515179,0.375638819900667,bad_rt
13708,35,2,1,64,car_pos,car_pos,car_neg,negation,positive,target,distractor,L,car_pos,Y,2/19/2019,18:41:00,2.326,F,35,english,1,0.8441500540964727,-0.30343137515179,0.375638819900667,bad_rt
13723,35,2,1,79,cookie_neg,cookie_pos,cookie_neg,negation,negative,distractor,target,R,cookie_neg,Y,2/19/2019,18:41:00,2.737,F,35,english,1,1.006862430058542,-0.30343137515179,0.375638819900667,bad_rt
13751,35,2,1,20,lamp_inhib,lamp_pos,lamp_inhib,inhibition,inhib,distractor,target,R,lamp_inhib,Y,2/19/2019,18:41:00,2.874,F,35,english,1,1.0557047876568333,-0.30343137515179,0.375638819900667,bad_rt
13835,35,2,1,71,teddybear_control,teddybear_foil,teddybear_control,implicature,unambiguous,distractor,target,R,teddybear_control,Y,2/19/2019,18:41:00,2.701,F,35,english,1,0.9936220748104786,-0.30343137515179,0.375638819900667,bad_rt
13845,35,2,1,1,cup_pos,cup_inhib,cup_pos,inhibition,control,distractor,target,R,cup_pos,Y,2/19/2019,18:41:00,2.824,F,35,english,1,1.0381543196309957,-0.30343137515179,0.375638819900667,bad_rt
13846,35,2,1,2,cup_pos,cup_inhib,cup_pos,inhibition,control,distractor,target,R,cup_pos,Y,2/19/2019,18:41:00,2.442,F,35,english,1,0.892817375688513,-0.30343137515179,0.375638819900667,bad_rt
14039,36,1,1,155,car_pos,car_pos,car_inhib,inhibition,control,target,distractor,L,car_pos,Y,2/19/2019,16:57:00,9.446,F,35,English,1,2.2455913714739255,-0.30343137515179,0.375638819900667,bad_rt
14045,36,1,1,1,dog_pos,dog_neg,dog_pos,negation,positive,distractor,target,R,dog_pos,Y,2/19/2019,16:57:00,2.568,F,35,English,1,0.9431273858277147,-0.30343137515179,0.375638819900667,bad_rt
14046,36,1,1,2,cat_neg,cat_neg,cat_pos,negation,negative,target,distractor,L,cat_neg,Y,2/19/2019,16:57:00,2.955,F,35,English,1,1.0834986508580615,-0.30343137515179,0.375638819900667,bad_rt
14053,36,1,1,9,apple_pos,apple_neg,apple_pos,negation,positive,distractor,target,R,apple_pos,Y,2/19/2019,16:57:00,6.724,F,35,English,1,1.9056832155463692,-0.30343137515179,0.375638819900667,bad_rt
14059,36,1,1,15,cookie_neg,cookie_pos,cookie_neg,negation,negative,distractor,target,R,cookie_neg,Y,2/19/2019,16:57:00,2.724,F,35,English,1,1.002101388287266,-0.30343137515179,0.375638819900667,bad_rt
14062,36,1,1,18,apple_pos,apple_neg,apple_pos,negation,positive,distractor,target,R,apple_pos,Y,2/19/2019,16:57:00,2.967,F,35,English,1,1.0875513413086848,-0.30343137515179,0.375638819900667,bad_rt
14078,36,1,1,34,bicycle_neg,bicycle_neg,bicycle_pos,negation,negative,target,distractor,L,bicycle_neg,Y,2/19/2019,16:57:00,7.019,F,35,English,1,1.9486207577482844,-0.30343137515179,0.375638819900667,bad_rt
14082,36,1,1,38,flower_neg,flower_pos,flower_neg,negation,negative,distractor,target,R,flower_neg,Y,2/19/2019,16:57:00,2.518,F,35,English,1,0.9234649356221554,-0.30343137515179,0.375638819900667,bad_rt
14083,36,1,1,39,cat_pos,cat_neg,cat_pos,negation,positive,distractor,target,R,cat_pos,Y,2/19/2019,16:57:00,9.095,F,35,English,1,2.2077248119700856,-0.30343137515179,0.375638819900667,bad_rt
14084,36,1,1,40,car_pos,car_neg,car_pos,negation,positive,distractor,target,R,car_pos,Y,2/19/2019,16:57:00,3.724,F,35,English,1,1.3147983594148207,-0.30343137515179,0.375638819900667,bad_rt
14089,36,1,1,45,dog_neg,dog_neg,dog_pos,negation,negative,target,distractor,L,dog_neg,Y,2/19/2019,16:57:00,3.06,F,35,English,1,1.1184149159642893,-0.30343137515179,0.375638819900667,bad_rt
14091,36,1,1,47,cookie_neg,cookie_pos,cookie_neg,negation,negative,distractor,target,R,cookie_neg,Y,2/19/2019,16:57:00,2.713,F,35,English,1,0.9980550336767947,-0.30343137515179,0.375638819900667,bad_rt
14116,36,1,1,73,apple_implic,apple_control,apple_implic,implicature,implicature,distractor,target,R,apple_implic,Y,2/19/2019,16:57:00,4.923,F,35,English,1,1.5939181007760634,-0.30343137515179,0.375638819900667,bad_rt
14125,36,1,1,82,bird_implic,bird_implic,bird_control,implicature,implicature,target,distractor,L,bird_implic,Y,2/19/2019,16:57:00,2.373,F,35,English,1,0.8641549774536266,-0.30343137515179,0.375638819900667,bad_rt
14127,36,1,1,84,teddybear_implic,teddybear_implic,teddybear_control,implicature,implicature,target,distractor,L,teddybear_implic,Y,2/19/2019,16:57:00,6.221,F,35,English,1,1.8279306655328826,-0.30343137515179,0.375638819900667,bad_rt
14128,36,1,1,85,cup_implic,cup_control,cup_implic,implicature,implicature,distractor,target,R,cup_implic,Y,2/19/2019,16:57:00,2.343,F,35,English,1,0.8514321595256585,-0.30343137515179,0.375638819900667,bad_rt
14138,36,1,1,94,cup_pos,cup_neg,cup_pos,negation,positive,distractor,target,R,cup_pos,Y,2/19/2019,16:57:00,2.313,F,35,English,1,0.8385453832493022,-0.30343137515179,0.375638819900667,bad_rt
14142,36,1,1,98,teddybear_pos,teddybear_neg,teddybear_pos,negation,positive,distractor,target,L,teddybear_neg,N,2/19/2019,16:57:00,9.132,F,35,English,0,2.211784728667549,-0.30343137515179,0.375638819900667,bad_rt
14146,36,1,1,102,cookie_neg,cookie_neg,cookie_pos,negation,negative,target,distractor,L,cookie_neg,Y,2/19/2019,16:57:00,4.109,F,35,English,1,1.4131796899012727,-0.30343137515179,0.375638819900667,bad_rt
14147,36,1,1,103,cat_neg,cat_pos,cat_neg,negation,negative,distractor,target,R,cat_neg,Y,2/19/2019,16:57:00,2.675,F,35,English,1,0.9839493803479697,-0.30343137515179,0.375638819900667,bad_rt
14150,36,1,1,106,flower_neg,flower_pos,flower_neg,negation,negative,distractor,target,R,flower_neg,Y,2/19/2019,16:57:00,6.488,F,35,English,1,1.8699543168131119,-0.30343137515179,0.375638819900667,bad_rt
14152,36,1,1,108,banana_neg,banana_pos,banana_neg,negation,negative,distractor,target,R,banana_neg,Y,2/19/2019,16:57:00,3.175,F,35,English,1,1.155307632344655,-0.30343137515179,0.375638819900667,bad_rt
14165,36,1,1,1,banana_control,banana_control,banana_foil,implicature,unambiguous,target,distractor,L,banana_control,Y,2/19/2019,16:57:00,2.464,F,35,English,1,0.9017860456712733,-0.30343137515179,0.375638819900667,bad_rt
14183,36,1,1,19,apple_implic,apple_control,apple_implic,implicature,implicature,distractor,target,R,apple_implic,Y,2/19/2019,16:57:00,5.009,F,35,English,1,1.6112362943754799,-0.30343137515179,0.375638819900667,bad_rt
14194,36,1,1,30,teddybear_control,teddybear_control,teddybear_foil,implicature,unambiguous,target,distractor,L,teddybear_control,Y,2/19/2019,16:57:00,4.7,F,35,English,1,1.547562508716013,-0.30343137515179,0.375638819900667,bad_rt
14195,36,1,1,31,bicycle_control,bicycle_control,bicycle_foil,implicature,unambiguous,target,distractor,L,bicycle_control,Y,2/19/2019,16:57:00,2.555,F,35,English,1,0.9380522236556679,-0.30343137515179,0.375638819900667,bad_rt
14216,36,1,1,52,banana_control,banana_control,banana_foil,implicature,unambiguous,target,distractor,L,banana_control,Y,2/19/2019,16:57:00,3.242,F,35,English,1,1.1761904233134843,-0.30343137515179,0.375638819900667,bad_rt
14222,36,1,1,98,apple_control,apple_control,apple_foil,implicature,unambiguous,target,distractor,L,apple_control,Y,2/19/2019,16:57:00,7.665,F,35,English,1,2.0366645123237777,-0.30343137515179,0.375638819900667,bad_rt
14227,36,1,1,103,teddybear_implic,teddybear_implic,teddybear_control,implicature,implicature,target,distractor,L,teddybear_implic,Y,2/19/2019,16:57:00,5.686,F,35,English,1,1.7380070132288081,-0.30343137515179,0.375638819900667,bad_rt
14237,36,1,1,113,cup_implic,cup_implic,cup_control,implicature,implicature,target,distractor,R,cup_control,N,2/19/2019,16:57:00,7.181,F,35,English,0,1.9714386491281806,-0.30343137515179,0.375638819900667,bad_rt
14242,36,1,1,118,bird_implic,bird_implic,bird_control,implicature,implicature,target,distractor,L,bird_implic,Y,2/19/2019,16:57:00,2.6,F,35,English,1,0.9555114450274363,-0.30343137515179,0.375638819900667,bad_rt
14962,38,2,2,44,lamp_pos,lamp_pos,lamp_neg,negation,positive,target,distractor,R,lamp_neg,N,2/15/2019,13:08:00,2.3,M,35,English,0,0.8329091229351039,-0.30343137515179,0.375638819900667,bad_rt
14991,38,2,2,33,bird_pos,bird_pos,bird_neg,negation,positive,target,distractor,L,bird_pos,Y,2/15/2019,13:08:00,2.772,M,35,English,1,1.0195690813276568,-0.30343137515179,0.375638819900667,bad_rt
15002,38,2,2,84,car_pos,car_neg,car_pos,negation,positive,distractor,target,R,car_pos,Y,2/15/2019,13:08:00,2.428,M,35,English,1,0.8870678731972518,-0.30343137515179,0.375638819900667,bad_rt
15348,39,1,1,117,car_pos,car_pos,car_neg,negation,positive,target,distractor,L,car_pos,Y,2/19/2019,13:47:00,2.614,F,45,English,1,0.9608816152020302,-0.30343137515179,0.375638819900667,bad_rt
15501,41,2,5,65,flower_control,flower_control,flower_foil,implicature,unambiguous,target,distractor,R,flower_foil,N,2/19/2019,14:19:00,0.204,M,25,english,0,-1.5896352851379207,-0.30343137515179,0.375638819900667,bad_rt
15507,41,2,5,71,teddybear_implic,teddybear_implic,teddybear_control,implicature,implicature,target,distractor,L,teddybear_implic,Y,2/19/2019,14:19:00,3.241,M,25,english,1,1.1758819241594103,-0.30343137515179,0.375638819900667,bad_rt
15561,41,2,5,5,lamp_neg,lamp_neg,lamp_pos,negation,negative,target,distractor,L,lamp_neg,Y,2/19/2019,14:19:00,4.243,M,25,english,1,1.445270566220188,-0.30343137515179,0.375638819900667,bad_rt
15568,41,2,5,12,cup_neg,cup_neg,cup_pos,negation,negative,target,distractor,L,cup_neg,Y,2/19/2019,14:19:00,3.885,M,25,english,1,1.3571229838196106,-0.30343137515179,0.375638819900667,bad_rt
15570,41,2,5,14,cookie_pos,cookie_neg,cookie_pos,negation,positive,distractor,target,R,cookie_pos,Y,2/19/2019,14:19:00,0.207,M,25,english,1,-1.575036485716768,-0.30343137515179,0.375638819900667,bad_rt
15607,41,2,5,51,bird_pos,bird_pos,bird_neg,negation,positive,target,distractor,L,bird_pos,Y,2/19/2019,14:19:00,3.53,M,25,english,1,1.2612978709452054,-0.30343137515179,0.375638819900667,bad_rt
15616,41,2,5,60,dog_neg,dog_pos,dog_neg,negation,negative,distractor,target,L,dog_pos,N,2/19/2019,14:19:00,2.62,M,25,english,0,0.9631743177730056,-0.30343137515179,0.375638819900667,bad_rt
16221,42,1,4,115,apple_pos,apple_pos,apple_neg,negation,positive,target,distractor,L,apple_pos,Y,2/15/2019,13:07:00,2.501,M,25,english,1,0.9166906518954819,-0.30343137515179,0.375638819900667,bad_rt
16228,43,1,3,2,cat_neg,cat_neg,cat_pos,negation,negative,target,distractor,R,cat_pos,N,2/16/2019,03:17:00,2.758,M,25,English,0,1.01450577937111,-0.30343137515179,0.375638819900667,bad_rt
16270,43,1,3,44,bird_pos,bird_neg,bird_pos,negation,positive,distractor,target,R,bird_pos,Y,2/16/2019,03:17:00,2.344,M,25,English,1,0.8518588717147662,-0.30343137515179,0.375638819900667,bad_rt
16301,43,1,3,75,cat_pos,cat_pos,cat_neg,negation,positive,target,distractor,R,cat_neg,N,2/16/2019,03:17:00,2.39,M,25,English,0,0.8712933659434193,-0.30343137515179,0.375638819900667,bad_rt
16308,43,1,3,82,bird_pos,bird_pos,bird_neg,negation,positive,target,distractor,L,bird_pos,Y,2/16/2019,03:17:00,2.299,M,25,English,1,0.8324742457810445,-0.30343137515179,0.375638819900667,bad_rt
16327,43,1,3,101,bicycle_neg,bicycle_neg,bicycle_pos,negation,negative,target,distractor,L,bicycle_neg,Y,2/16/2019,03:17:00,2.34,M,25,English,1,0.85015092936961,-0.30343137515179,0.375638819900667,bad_rt
16335,43,1,3,109,cup_pos,cup_neg,cup_pos,negation,positive,distractor,target,R,cup_pos,Y,2/16/2019,03:17:00,2.811,M,25,English,1,1.0335402919243948,-0.30343137515179,0.375638819900667,bad_rt
16346,43,1,3,120,bird_neg,bird_neg,bird_pos,negation,negative,target,distractor,L,bird_neg,Y,2/16/2019,03:17:00,2.421,M,25,English,1,0.8841806779559214,-0.30343137515179,0.375638819900667,bad_rt
16539,43,1,3,34,cookie_control,cookie_control,cookie_foil,implicature,unambiguous,target,distractor,L,cookie_control,Y,2/16/2019,03:17:00,2.387,M,25,English,1,0.870037347356693,-0.30343137515179,0.375638819900667,bad_rt
16659,44,1,5,34,cookie_implic,cookie_control,cookie_implic,implicature,implicature,distractor,target,R,cookie_implic,Y,2/16/2019,02:19:00,3.943,F,45,English,1,1.37194185489549,-0.30343137515179,0.375638819900667,bad_rt
16700,44,1,5,75,lamp_control,lamp_control,lamp_foil,implicature,unambiguous,target,distractor,L,lamp_control,Y,2/16/2019,02:19:00,3.25,F,45,English,1,1.1786549963416462,-0.30343137515179,0.375638819900667,bad_rt
16718,44,1,5,93,cat_control,cat_foil,cat_control,implicature,unambiguous,distractor,target,R,cat_control,Y,2/16/2019,02:19:00,2.629,F,45,English,1,0.9666035457477442,-0.30343137515179,0.375638819900667,bad_rt
16719,44,1,5,94,banana_control,banana_foil,banana_control,implicature,unambiguous,distractor,target,R,banana_control,Y,2/16/2019,02:19:00,2.475,F,45,English,1,0.9062403960206536,-0.30343137515179,0.375638819900667,bad_rt
16746,44,1,5,1,dog_neg,dog_pos,dog_neg,negation,negative,distractor,target,L,dog_pos,N,2/16/2019,02:19:00,3.457,F,45,English,0,1.2404011609394874,-0.30343137515179,0.375638819900667,bad_rt
16748,44,1,5,3,teddybear_neg,teddybear_neg,teddybear_pos,negation,negative,target,distractor,L,teddybear_neg,Y,2/16/2019,02:19:00,3.022,F,45,English,1,1.1059188638505477,-0.30343137515179,0.375638819900667,bad_rt
16757,44,1,5,12,banana_neg,banana_neg,banana_pos,negation,negative,target,distractor,L,banana_neg,Y,2/16/2019,02:19:00,2.404,F,45,English,1,0.8771340166729611,-0.30343137515179,0.375638819900667,bad_rt
17500,46,2,5,86,apple_control,apple_foil,apple_control,implicature,unambiguous,distractor,target,R,apple_control,Y,2/19/2019,18:47:00,3.068,F,35,English,1,1.1210258835050098,-0.30343137515179,0.375638819900667,bad_rt
17899,47,1,2,91,cup_pos,cup_inhib,cup_pos,inhibition,control,distractor,target,R,cup_pos,Y,2/19/2019,17:35:00,2.794,M,35,English,1,1.02747426083477,-0.30343137515179,0.375638819900667,bad_rt
18111,47,1,2,27,cat_neg,cat_pos,cat_neg,negation,negative,distractor,target,L,cat_pos,N,2/19/2019,17:35:00,6.617,M,35,English,0,1.8896420950299224,-0.30343137515179,0.375638819900667,bad_rt
18134,47,1,2,50,teddybear_pos,teddybear_pos,teddybear_neg,negation,positive,target,distractor,L,teddybear_pos,Y,2/19/2019,17:35:00,3.74,M,35,English,1,1.3190856114264407,-0.30343137515179,0.375638819900667,bad_rt
18144,47,1,2,60,cookie_pos,cookie_pos,cookie_neg,negation,positive,target,distractor,L,cookie_pos,Y,2/19/2019,17:35:00,2.99,M,35,English,1,1.095273387402595,-0.30343137515179,0.375638819900667,bad_rt
18163,47,1,2,79,banana_neg,banana_pos,banana_neg,negation,negative,distractor,target,R,banana_neg,Y,2/19/2019,17:35:00,3.43,M,35,English,1,1.2325602611778486,-0.30343137515179,0.375638819900667,bad_rt
18173,47,1,2,89,car_neg,car_pos,car_neg,negation,negative,distractor,target,R,car_neg,Y,2/19/2019,17:35:00,4.168,M,35,English,1,1.4274363044510658,-0.30343137515179,0.375638819900667,bad_rt
18179,47,1,2,95,bird_neg,bird_pos,bird_neg,negation,negative,distractor,target,R,bird_neg,Y,2/19/2019,17:35:00,5.79,M,35,English,1,1.7561322915849038,-0.30343137515179,0.375638819900667,bad_rt
18181,47,1,2,97,car_pos,car_neg,car_pos,negation,positive,distractor,target,R,car_pos,Y,2/19/2019,17:35:00,2.3,M,35,English,1,0.8329091229351039,-0.30343137515179,0.375638819900667,bad_rt
18200,47,1,2,116,dog_neg,dog_neg,dog_pos,negation,negative,target,distractor,R,dog_pos,N,2/19/2019,17:35:00,4.518,M,35,English,0,1.5080694180458114,-0.30343137515179,0.375638819900667,bad_rt
18203,47,1,2,119,teddybear_pos,teddybear_neg,teddybear_pos,negation,positive,distractor,target,R,teddybear_pos,Y,2/19/2019,17:35:00,2.797,M,35,English,1,1.0285474142198228,-0.30343137515179,0.375638819900667,bad_rt
19057,50,1,5,65,car_control,car_foil,car_control,implicature,unambiguous,distractor,target,R,car_control,Y,2/19/2019,14:21:00,2.534,F,35,english,1,0.9297990818989472,-0.30343137515179,0.375638819900667,bad_rt
19502,51,2,4,115,teddybear_implic,teddybear_implic,teddybear_control,implicature,implicature,target,distractor,L,teddybear_implic,Y,2/19/2019,16:28:00,2.99,M,65,English,1,1.095273387402595,-0.30343137515179,0.375638819900667,bad_rt
19692,51,2,4,30,apple_neg,apple_pos,apple_neg,negation,negative,distractor,target,R,apple_neg,Y,2/19/2019,16:28:00,3.764,M,65,English,1,1.3254822217231332,-0.30343137515179,0.375638819900667,bad_rt
19753,51,2,4,91,cat_pos,cat_neg,cat_pos,negation,positive,distractor,target,R,cat_pos,Y,2/19/2019,16:28:00,2.336,M,65,English,1,0.8484400649659806,-0.30343137515179,0.375638819900667,bad_rt
19911,52,2,1,129,lamp_inhib,lamp_inhib,lamp_pos,inhibition,inhib,target,distractor,L,lamp_inhib,Y,2/19/2019,14:20:00,2.917,M,35,English,1,1.0705556908855842,-0.30343137515179,0.375638819900667,bad_rt
19938,52,2,1,1,cookie_pos,cookie_pos,cookie_neg,negation,positive,target,distractor,L,cookie_pos,Y,2/19/2019,14:20:00,3.083,M,35,English,1,1.1259031489040134,-0.30343137515179,0.375638819900667,bad_rt
19939,52,2,1,2,flower_neg,flower_neg,flower_pos,negation,negative,target,distractor,L,flower_neg,Y,2/19/2019,14:20:00,2.619,M,35,English,1,0.9627925655255749,-0.30343137515179,0.375638819900667,bad_rt
20025,52,2,1,88,banana_pos,banana_pos,banana_neg,negation,positive,target,distractor,R,banana_neg,N,2/19/2019,14:20:00,2.961,M,35,English,0,1.0855270491194542,-0.30343137515179,0.375638819900667,bad_rt
20038,52,2,1,101,teddybear_neg,teddybear_neg,teddybear_pos,negation,negative,target,distractor,L,teddybear_neg,Y,2/19/2019,14:20:00,2.408,M,35,English,1,0.8787965274465745,-0.30343137515179,0.375638819900667,bad_rt
20059,52,2,1,2,bicycle_control,bicycle_control,bicycle_foil,implicature,unambiguous,target,distractor,L,bicycle_control,Y,2/19/2019,14:20:00,2.289,M,35,English,1,0.8281150409704298,-0.30343137515179,0.375638819900667,bad_rt
20178,53,2,4,1,cat_implic,cat_control,cat_implic,implicature,implicature,distractor,target,R,cat_implic,Y,2/19/2019,16:32:00,3.079,NA,35,English,1,1.1246048689423633,-0.30343137515179,0.375638819900667,bad_rt
20180,53,2,4,3,cup_control,cup_control,cup_foil,implicature,unambiguous,target,distractor,L,cup_control,Y,2/19/2019,16:32:00,2.814,NA,35,English,1,1.0346069586921973,-0.30343137515179,0.375638819900667,bad_rt
20446,53,2,4,149,cookie_pos,cookie_pos,cookie_inhib,inhibition,control,target,distractor,L,cookie_pos,Y,2/19/2019,16:32:00,2.785,NA,35,English,1,1.0242478733792475,-0.30343137515179,0.375638819900667,bad_rt
20815,54,1,2,90,flower_implic,flower_control,flower_implic,implicature,implicature,distractor,target,R,flower_implic,Y,2/19/2019,18:20:00,2.285,M,25,English,1,0.8263660243461681,-0.30343137515179,0.375638819900667,bad_rt
20926,54,1,2,81,cookie_neg,cookie_neg,cookie_pos,negation,negative,target,distractor,L,cookie_neg,Y,2/19/2019,18:20:00,2.918,M,25,English,1,1.070898450100594,-0.30343137515179,0.375638819900667,bad_rt
20957,54,1,2,112,cookie_pos,cookie_neg,cookie_pos,negation,positive,distractor,target,R,cookie_pos,Y,2/19/2019,18:20:00,4.34,M,25,English,1,1.4678743481123135,-0.30343137515179,0.375638819900667,bad_rt
21511,56,1,6,17,cat_implic,cat_control,cat_implic,implicature,implicature,distractor,target,R,cat_implic,Y,2/19/2019,11:46:00,3.48,F,55,English,1,1.247032293786383,-0.30343137515179,0.375638819900667,bad_rt
21772,57,2,4,1,cat_implic,cat_control,cat_implic,implicature,implicature,distractor,target,L,cat_control,N,2/19/2019,17:38:00,2.398,F,55,English,0,0.8746350566053226,-0.30343137515179,0.375638819900667,bad_rt
21773,57,2,4,2,bicycle_control,bicycle_foil,bicycle_control,implicature,unambiguous,distractor,target,R,bicycle_control,Y,2/19/2019,17:38:00,2.496,F,55,English,1,0.9146894505071812,-0.30343137515179,0.375638819900667,bad_rt
21775,57,2,4,4,teddybear_control,teddybear_foil,teddybear_control,implicature,unambiguous,distractor,target,R,teddybear_control,Y,2/19/2019,17:38:00,2.372,F,55,English,1,0.863733481135479,-0.30343137515179,0.375638819900667,bad_rt
21777,57,2,4,6,apple_implic,apple_control,apple_implic,implicature,implicature,distractor,target,R,apple_implic,Y,2/19/2019,17:38:00,4.227,F,55,English,1,1.441492521584653,-0.30343137515179,0.375638819900667,bad_rt
21847,57,2,4,76,flower_implic,flower_implic,flower_control,implicature,implicature,target,distractor,L,flower_implic,Y,2/19/2019,17:38:00,2.898,F,55,English,1,1.0640208438984906,-0.30343137515179,0.375638819900667,bad_rt
21851,57,2,4,80,dog_control,dog_foil,dog_control,implicature,unambiguous,distractor,target,L,dog_foil,N,2/19/2019,17:38:00,3.828,F,55,English,0,1.3423424735907077,-0.30343137515179,0.375638819900667,bad_rt
21859,57,2,4,88,cat_control,cat_foil,cat_control,implicature,unambiguous,distractor,target,L,cat_foil,N,2/19/2019,17:38:00,3.236,F,55,English,0,1.1743379991962453,-0.30343137515179,0.375638819900667,bad_rt
21872,57,2,4,101,bicycle_implic,bicycle_control,bicycle_implic,implicature,implicature,distractor,target,R,bicycle_implic,Y,2/19/2019,17:38:00,2.74,F,55,English,1,1.007957920399979,-0.30343137515179,0.375638819900667,bad_rt
22045,57,2,4,2,flower_neg,flower_neg,flower_pos,negation,negative,target,distractor,R,flower_pos,N,2/19/2019,17:38:00,2.603,F,55,English,0,0.9566646260124284,-0.30343137515179,0.375638819900667,bad_rt
22047,57,2,4,4,bicycle_neg,bicycle_pos,bicycle_neg,negation,negative,distractor,target,R,bicycle_neg,Y,2/19/2019,17:38:00,2.416,F,55,English,1,0.8821132800725685,-0.30343137515179,0.375638819900667,bad_rt
23091,60,2,1,1,cookie_pos,cookie_neg,cookie_pos,negation,positive,distractor,target,R,cookie_pos,Y,2/15/2019,12:36:00,2.737,M,35,english,1,1.006862430058542,-0.30343137515179,0.375638819900667,bad_rt
23151,60,2,1,61,bird_neg,bird_pos,bird_neg,negation,negative,distractor,target,R,bird_neg,Y,2/15/2019,12:36:00,2.87,M,35,english,1,1.0543120297715298,-0.30343137515179,0.375638819900667,bad_rt
23216,60,2,1,6,apple_control,apple_foil,apple_control,implicature,unambiguous,distractor,target,R,apple_control,Y,2/15/2019,12:36:00,2.518,M,35,english,1,0.9234649356221554,-0.30343137515179,0.375638819900667,bad_rt
23224,60,2,1,14,dog_implic,dog_implic,dog_control,implicature,implicature,target,distractor,L,dog_implic,Y,2/15/2019,12:36:00,5.028,M,35,english,1,1.615022290728001,-0.30343137515179,0.375638819900667,bad_rt
23733,62,1,3,7,bicycle_neg,bicycle_pos,bicycle_neg,negation,negative,distractor,target,L,bicycle_pos,N,2/19/2019,18:36:00,8.077,M,17,English,0,2.089020516460159,-0.30343137515179,0.375638819900667,bad_rt
23737,62,1,3,11,flower_neg,flower_neg,flower_pos,negation,negative,target,distractor,R,flower_pos,N,2/19/2019,18:36:00,4.106,M,17,English,0,1.4124493185967417,-0.30343137515179,0.375638819900667,bad_rt
23756,62,1,3,30,cookie_neg,cookie_neg,cookie_pos,negation,negative,target,distractor,L,cookie_neg,Y,2/19/2019,18:36:00,2.892,M,17,English,1,1.0619483042965183,-0.30343137515179,0.375638819900667,bad_rt
23807,62,1,3,81,cookie_pos,cookie_pos,cookie_neg,negation,positive,target,distractor,R,cookie_neg,N,2/19/2019,18:36:00,6.939,M,17,English,0,1.9371576719174117,-0.30343137515179,0.375638819900667,bad_rt
23831,62,1,3,104,lamp_neg,lamp_pos,lamp_neg,negation,negative,distractor,target,R,lamp_neg,Y,2/19/2019,18:36:00,4.665,M,17,English,1,1.5400878342993072,-0.30343137515179,0.375638819900667,bad_rt
23964,62,1,3,118,teddybear_pos,teddybear_inhib,teddybear_pos,inhibition,control,distractor,target,R,teddybear_pos,Y,2/19/2019,18:36:00,4.42,M,17,English,1,1.4861396960896067,-0.30343137515179,0.375638819900667,bad_rt
24107,62,1,3,105,flower_implic,flower_implic,flower_control,implicature,implicature,target,distractor,L,flower_implic,Y,2/19/2019,18:36:00,2.492,M,17,English,1,0.9130856009252067,-0.30343137515179,0.375638819900667,bad_rt
24396,63,2,2,1,cookie_neg,cookie_neg,cookie_pos,negation,negative,target,distractor,L,cookie_neg,Y,2/19/2019,13:45:00,2.599,M,35,English,1,0.9551267556593532,-0.30343137515179,0.375638819900667,bad_rt
24403,63,2,2,8,dog_pos,dog_pos,dog_neg,negation,positive,target,distractor,L,dog_pos,Y,2/19/2019,13:45:00,2.63,M,35,English,1,0.9669838461896731,-0.30343137515179,0.375638819900667,bad_rt
24414,63,2,2,19,cup_neg,cup_neg,cup_pos,negation,negative,target,distractor,L,cup_neg,Y,2/19/2019,13:45:00,2.435,M,35,English,1,0.8899467565345531,-0.30343137515179,0.375638819900667,bad_rt
24453,63,2,2,58,teddybear_neg,teddybear_neg,teddybear_pos,negation,negative,target,distractor,L,teddybear_neg,Y,2/19/2019,13:45:00,2.468,M,35,English,1,0.9034081060431414,-0.30343137515179,0.375638819900667,bad_rt
24581,64,1,4,66,teddybear_control,teddybear_foil,teddybear_control,implicature,unambiguous,distractor,target,R,teddybear_control,Y,2/19/2019,17:23:00,2.423,F,35,English,1,0.8850064418343887,-0.30343137515179,0.375638819900667,bad_rt
24830,64,1,4,43,bicycle_pos,bicycle_pos,bicycle_neg,negation,positive,target,distractor,L,bicycle_pos,Y,2/19/2019,17:23:00,2.58,F,35,English,1,0.9477893989335261,-0.30343137515179,0.375638819900667,bad_rt
24890,64,1,4,103,cat_pos,cat_pos,cat_neg,negation,positive,target,distractor,L,cat_pos,Y,2/19/2019,17:23:00,2.352,F,35,English,1,0.8552660300363805,-0.30343137515179,0.375638819900667,bad_rt
25430,66,2,6,1,cat_implic,cat_control,cat_implic,implicature,implicature,distractor,target,R,cat_implic,Y,2/19/2019,14:12:00,2.351,M,35,English,1,0.8548407695579324,-0.30343137515179,0.375638819900667,bad_rt
25850,67,2,1,147,banana_inhib,banana_inhib,banana_pos,inhibition,inhib,target,distractor,L,banana_inhib,Y,2/19/2019,18:43:00,4.992,F,35,English,1,1.6078366310671266,-0.30343137515179,0.375638819900667,bad_rt
25851,67,2,1,148,cookie_pos,cookie_inhib,cookie_pos,inhibition,control,distractor,target,R,cookie_pos,Y,2/19/2019,18:43:00,2.501,F,35,English,1,0.9166906518954819,-0.30343137515179,0.375638819900667,bad_rt
25853,67,2,1,150,cookie_pos,cookie_pos,cookie_inhib,inhibition,control,target,distractor,L,cookie_pos,Y,2/19/2019,18:43:00,3.5,F,35,English,1,1.252762968495368,-0.30343137515179,0.375638819900667,bad_rt
25900,67,2,1,44,lamp_pos,lamp_pos,lamp_neg,negation,positive,target,distractor,L,lamp_pos,Y,2/19/2019,18:43:00,2.305,F,35,English,1,0.835080676448612,-0.30343137515179,0.375638819900667,bad_rt
25920,67,2,1,64,car_pos,car_pos,car_neg,negation,positive,target,distractor,L,car_pos,Y,2/19/2019,18:43:00,3.027,F,35,English,1,1.1075720300395817,-0.30343137515179,0.375638819900667,bad_rt
25932,67,2,1,76,bird_pos,bird_pos,bird_neg,negation,positive,target,distractor,L,bird_pos,Y,2/19/2019,18:43:00,3.272,F,35,English,1,1.1854014187405006,-0.30343137515179,0.375638819900667,bad_rt
25977,67,2,1,1,cat_control,cat_control,cat_foil,implicature,unambiguous,target,distractor,L,cat_control,Y,2/19/2019,18:43:00,2.486,F,35,English,1,0.9106749930885194,-0.30343137515179,0.375638819900667,bad_rt
25979,67,2,1,3,cup_implic,cup_implic,cup_control,implicature,implicature,target,distractor,L,cup_implic,Y,2/19/2019,18:43:00,2.467,F,35,English,1,0.9030028375472197,-0.30343137515179,0.375638819900667,bad_rt
26243,68,1,5,27,cat_pos,cat_neg,cat_pos,negation,positive,distractor,target,R,cat_pos,Y,2/19/2019,17:52:00,2.334,M,65,english,1,0.8475835338643642,-0.30343137515179,0.375638819900667,bad_rt
26288,68,1,5,72,cup_pos,cup_neg,cup_pos,negation,positive,distractor,target,L,cup_neg,N,2/19/2019,17:52:00,2.981,M,65,english,0,1.0922588146959344,-0.30343137515179,0.375638819900667,bad_rt
26304,68,1,5,88,bicycle_pos,bicycle_neg,bicycle_pos,negation,positive,distractor,target,R,bicycle_pos,Y,2/19/2019,17:52:00,2.377,M,65,english,1,0.8658391883780567,-0.30343137515179,0.375638819900667,bad_rt
26389,68,1,5,53,cookie_pos,cookie_inhib,cookie_pos,inhibition,control,distractor,target,R,cookie_pos,Y,2/19/2019,17:52:00,2.697,M,65,english,1,0.9921400441575929,-0.30343137515179,0.375638819900667,bad_rt
26392,68,1,5,56,cookie_pos,cookie_pos,cookie_inhib,inhibition,control,target,distractor,L,cookie_pos,Y,2/19/2019,17:52:00,0.233,M,65,english,1,-1.4567168254164364,-0.30343137515179,0.375638819900667,bad_rt
26399,68,1,5,63,lamp_pos,lamp_pos,lamp_inhib,inhibition,control,target,distractor,L,lamp_pos,Y,2/19/2019,17:52:00,0.209,M,65,english,1,-1.565421027017326,-0.30343137515179,0.375638819900667,bad_rt
26490,69,2,6,2,flower_neg,flower_neg,flower_pos,negation,negative,target,distractor,R,flower_pos,N,2/19/2019,16:29:00,2.359,M,45,english,0,0.858237800425538,-0.30343137515179,0.375638819900667,bad_rt
26515,69,2,6,27,bicycle_neg,bicycle_pos,bicycle_neg,negation,negative,distractor,target,R,bicycle_neg,Y,2/19/2019,16:29:00,3.32,M,45,english,1,1.199964782928397,-0.30343137515179,0.375638819900667,bad_rt
26883,70,1,4,1,banana_control,banana_control,banana_foil,implicature,unambiguous,target,distractor,R,banana_foil,N,2/19/2019,14:31:00,8.293,M,25,English,0,2.1154117854690666,-0.30343137515179,0.375638819900667,bad_rt
27743,72,1,6,71,cat_neg,cat_neg,cat_pos,negation,negative,target,distractor,L,cat_neg,Y,2/19/2019,10:54:00,4.379,M,35,english,1,1.4768203878192612,-0.30343137515179,0.375638819900667,bad_rt
27981,72,2,4,85,bird_pos,bird_pos,bird_inhib,inhibition,control,target,distractor,R,bird_inhib,N,2/19/2019,10:57:00,0.233,M,35,english,0,-1.4567168254164364,-0.30343137515179,0.375638819900667,bad_rt
28175,73,2,3,5,lamp_neg,lamp_neg,lamp_pos,negation,negative,target,distractor,R,lamp_pos,N,2/19/2019,18:32:00,3.13,F,45,English,0,1.1410330045520618,-0.30343137515179,0.375638819900667,bad_rt
28176,73,2,3,6,bird_pos,bird_pos,bird_neg,negation,positive,target,distractor,L,bird_pos,Y,2/19/2019,18:32:00,4.278,F,45,English,1,1.4534856106602139,-0.30343137515179,0.375638819900667,bad_rt
28229,73,2,3,59,cat_pos,cat_neg,cat_pos,negation,positive,distractor,target,L,cat_neg,N,2/19/2019,18:32:00,5.176,F,45,English,0,1.6440325571985994,-0.30343137515179,0.375638819900667,bad_rt
28543,73,2,3,95,lamp_control,lamp_control,lamp_foil,implicature,unambiguous,target,distractor,L,lamp_control,Y,2/19/2019,18:32:00,3.059,F,45,English,1,1.1180880651687664,-0.30343137515179,0.375638819900667,bad_rt
29364,76,2,1,1,cup_pos,cup_inhib,cup_pos,inhibition,control,distractor,target,R,cup_pos,Y,2/19/2019,16:21:00,3.242,F,45,Telugu,1,1.1761904233134843,-0.30343137515179,0.375638819900667,bad_rt
29883,77,1,5,4,cookie_neg,cookie_neg,cookie_pos,negation,negative,target,distractor,L,cookie_neg,Y,2/19/2019,17:20:00,2.311,M,35,english,1,0.8376803312922436,-0.30343137515179,0.375638819900667,bad_rt
29884,77,1,5,5,car_neg,car_pos,car_neg,negation,negative,distractor,target,R,car_neg,Y,2/19/2019,17:20:00,3.888,M,35,english,1,1.3578948865981926,-0.30343137515179,0.375638819900667,bad_rt
29955,77,1,5,76,flower_pos,flower_neg,flower_pos,negation,positive,distractor,target,R,flower_pos,Y,2/19/2019,17:20:00,4.018,M,35,english,1,1.3907842663927426,-0.30343137515179,0.375638819900667,bad_rt
31279,80,2,3,54,dog_implic,dog_implic,dog_control,implicature,implicature,target,distractor,L,dog_implic,Y,2/19/2019,16:32:00,2.552,F,35,english,1,0.9368773654825434,-0.30343137515179,0.375638819900667,bad_rt
31600,81,2,5,15,lamp_pos,lamp_inhib,lamp_pos,inhibition,control,distractor,target,R,lamp_pos,Y,2/19/2019,16:37:00,2.281,M,55,English,1,0.824613943302251,-0.30343137515179,0.375638819900667,bad_rt
450,2,1,2,108,banana_pos,banana_neg,banana_pos,negation,positive,distractor,target,L,banana_neg,N,2/19/2019,16:30:00,0.098,M,35,English,0,-2.322787800311565,NA,NA,bad_rt
454,2,1,2,112,cookie_neg,cookie_neg,cookie_pos,negation,negative,target,distractor,L,cookie_neg,Y,2/19/2019,16:30:00,0.0880000000000005,M,35,English,1,-2.430418464503925,NA,NA,bad_rt
455,2,1,2,113,bicycle_neg,bicycle_pos,bicycle_neg,negation,negative,distractor,target,R,bicycle_neg,Y,2/19/2019,16:30:00,0.0820000000000008,M,35,English,1,-2.501036031717874,NA,NA,bad_rt
631,2,1,2,46,banana_neg,banana_pos,banana_neg,negation,negative,distractor,target,R,banana_neg,Y,2/19/2019,16:30:00,0.040000000000001,M,35,English,1,-3.2188758248681757,NA,NA,bad_rt
634,2,1,2,49,cup_neg,cup_neg,cup_pos,negation,negative,target,distractor,L,cup_neg,Y,2/19/2019,16:30:00,0.16800000000000098,M,35,English,1,-1.7837912995788723,NA,NA,bad_rt
662,2,1,2,76,banana_control,banana_control,banana_foil,implicature,unambiguous,target,distractor,R,banana_foil,N,2/19/2019,16:30:00,0.091,M,35,English,0,-2.396895772465287,NA,NA,bad_rt
746,2,1,2,80,teddybear_neg,teddybear_pos,teddybear_neg,negation,negative,distractor,target,R,teddybear_neg,Y,2/19/2019,16:30:00,0.0499999999999977,M,35,English,1,-2.995732273554037,NA,NA,bad_rt
1017,3,1,4,71,bird_pos,bird_pos,bird_inhib,inhibition,control,target,distractor,L,bird_pos,Y,2/16/2019,02:22:00,21.271,M,45,english,1,3.0573446426815134,NA,NA,bad_rt
1288,4,2,3,64,car_neg,car_neg,car_pos,negation,negative,target,distractor,L,car_neg,Y,2/19/2019,12:52:00,14.583,M,25,English,1,2.679856466731428,NA,NA,bad_rt
1435,4,2,3,91,bird_pos,bird_pos,bird_inhib,inhibition,control,target,distractor,L,bird_pos,Y,2/19/2019,12:52:00,0.154,M,25,English,1,-1.870802676568508,NA,NA,bad_rt
1442,4,2,3,98,dog_pos,dog_pos,dog_inhib,inhibition,control,target,distractor,L,dog_pos,Y,2/19/2019,12:52:00,0.14,M,25,English,1,-1.9661128563728327,NA,NA,bad_rt
1448,4,2,3,104,apple_pos,apple_inhib,apple_pos,inhibition,control,distractor,target,R,apple_pos,Y,2/19/2019,12:52:00,0.078,M,25,English,1,-2.551046452292545,NA,NA,bad_rt
1473,4,2,3,129,lamp_pos,lamp_inhib,lamp_pos,inhibition,control,distractor,target,L,lamp_inhib,N,2/19/2019,12:52:00,0.096,M,25,English,0,-2.3434070875143007,NA,NA,bad_rt
1481,4,2,3,137,bicycle_pos,bicycle_pos,bicycle_inhib,inhibition,control,target,distractor,R,bicycle_inhib,N,2/19/2019,12:52:00,0.183,M,25,English,0,-1.6982691261407161,NA,NA,bad_rt
1629,5,2,3,10,car_pos,car_pos,car_neg,negation,positive,target,distractor,L,car_pos,Y,2/19/2019,17:20:00,0.062,M,65,English,1,-2.7806208939370456,NA,NA,bad_rt
1856,5,2,3,117,cat_pos,cat_pos,cat_inhib,inhibition,control,target,distractor,R,cat_inhib,N,2/19/2019,17:20:00,0.019,M,65,English,0,-3.9633162998156966,NA,NA,bad_rt
1880,5,2,3,141,cup_pos,cup_pos,cup_inhib,inhibition,control,target,distractor,R,cup_inhib,N,2/19/2019,17:20:00,0.027,M,65,English,0,-3.611918412977808,NA,NA,bad_rt
2959,8,1,4,32,bicycle_pos,bicycle_pos,bicycle_inhib,inhibition,control,target,distractor,L,bicycle_pos,Y,2/19/2019,16:19:00,0.018,M,45,English,1,-4.017383521085972,NA,NA,bad_rt
3196,9,1,2,80,bicycle_control,bicycle_control,bicycle_foil,implicature,unambiguous,target,distractor,R,bicycle_foil,N,2/19/2019,16:50:00,0.035,F,45,English,0,-3.3524072174927233,NA,NA,bad_rt
3958,11,2,1,5,lamp_neg,lamp_neg,lamp_pos,negation,negative,target,distractor,L,lamp_neg,Y,2/19/2019,11:08:00,0.0489999999999973,NA,35,english,1,-3.0159349808715654,NA,NA,bad_rt
3959,11,2,1,7,banana_pos,banana_neg,banana_pos,negation,positive,distractor,target,R,banana_pos,Y,2/19/2019,11:08:00,0.084,NA,35,english,1,-2.4769384801388235,NA,NA,bad_rt
3960,11,2,1,8,dog_pos,dog_neg,dog_pos,negation,positive,distractor,target,R,dog_pos,Y,2/19/2019,11:08:00,0.042,NA,35,english,1,-3.170085660698769,NA,NA,bad_rt
3961,11,2,1,9,apple_pos,apple_neg,apple_pos,negation,positive,distractor,target,R,apple_pos,Y,2/19/2019,11:08:00,0.067,NA,35,english,1,-2.703062659591171,NA,NA,bad_rt
3962,11,2,1,6,bird_neg,bird_pos,bird_neg,negation,negative,distractor,target,R,bird_neg,Y,2/19/2019,11:08:00,0.0919999999999998,NA,35,english,1,-2.385966701933099,NA,NA,bad_rt
3963,11,2,1,15,banana_pos,banana_pos,banana_neg,negation,positive,target,distractor,R,banana_neg,N,2/19/2019,11:08:00,0.05,NA,35,english,0,-2.995732273553991,NA,NA,bad_rt
3964,11,2,1,16,dog_neg,dog_pos,dog_neg,negation,negative,distractor,target,R,dog_neg,Y,2/19/2019,11:08:00,0.042,NA,35,english,1,-3.170085660698769,NA,NA,bad_rt
3965,11,2,1,17,bird_pos,bird_pos,bird_neg,negation,positive,target,distractor,R,bird_neg,N,2/19/2019,11:08:00,0.092,NA,35,english,0,-2.385966701933097,NA,NA,bad_rt
3966,11,2,1,18,bicycle_neg,bicycle_pos,bicycle_neg,negation,negative,distractor,target,R,bicycle_neg,Y,2/19/2019,11:08:00,0.09400000000000079,NA,35,english,1,-2.3644604967121245,NA,NA,bad_rt
3967,11,2,1,19,cup_pos,cup_pos,cup_neg,negation,positive,target,distractor,R,cup_neg,N,2/19/2019,11:08:00,0.043,NA,35,english,0,-3.146555163288575,NA,NA,bad_rt
3968,11,2,1,20,lamp_pos,lamp_pos,lamp_neg,negation,positive,target,distractor,R,lamp_neg,N,2/19/2019,11:08:00,0.098,NA,35,english,0,-2.322787800311565,NA,NA,bad_rt
3969,11,2,1,21,car_pos,car_pos,car_neg,negation,positive,target,distractor,R,car_neg,N,2/19/2019,11:08:00,0.052,NA,35,english,0,-2.9565115604007097,NA,NA,bad_rt
3970,11,2,1,22,cat_pos,cat_neg,cat_pos,negation,positive,distractor,target,R,cat_pos,Y,2/19/2019,11:08:00,0.061,NA,35,english,1,-2.796881414808826,NA,NA,bad_rt
3971,11,2,1,10,car_neg,car_neg,car_pos,negation,negative,target,distractor,R,car_pos,N,2/19/2019,11:08:00,0.0539999999999995,NA,35,english,0,-2.918771232417872,NA,NA,bad_rt
3972,11,2,1,11,teddybear_pos,teddybear_neg,teddybear_pos,negation,positive,distractor,target,R,teddybear_pos,Y,2/19/2019,11:08:00,0.058,NA,35,english,1,-2.8473122684357177,NA,NA,bad_rt
3973,11,2,1,12,cup_pos,cup_neg,cup_pos,negation,positive,distractor,target,R,cup_pos,Y,2/19/2019,11:08:00,0.053,NA,35,english,1,-2.9374633654300153,NA,NA,bad_rt
3974,11,2,1,13,apple_pos,apple_pos,apple_neg,negation,positive,target,distractor,R,apple_neg,N,2/19/2019,11:08:00,0.104,NA,35,english,0,-2.2633643798407643,NA,NA,bad_rt
3975,11,2,1,14,cookie_pos,cookie_neg,cookie_pos,negation,positive,distractor,target,R,cookie_pos,Y,2/19/2019,11:08:00,0.085,NA,35,english,1,-2.4651040224918206,NA,NA,bad_rt
3976,11,2,1,147,banana_pos,banana_inhib,banana_pos,inhibition,control,distractor,target,R,banana_pos,Y,2/19/2019,11:08:00,0.02,NA,35,english,1,-3.912023005428146,NA,NA,bad_rt
3977,11,2,1,148,banana_pos,banana_pos,banana_inhib,inhibition,control,target,distractor,R,banana_inhib,N,2/19/2019,11:08:00,0.034,NA,35,english,0,-3.3813947543659757,NA,NA,bad_rt
3978,11,2,1,149,banana_pos,banana_inhib,banana_pos,inhibition,control,distractor,target,L,banana_inhib,N,2/19/2019,11:08:00,0.132,NA,35,english,0,-2.0249533563957662,NA,NA,bad_rt
3979,11,2,1,150,banana_pos,banana_inhib,banana_pos,inhibition,control,distractor,target,L,banana_inhib,N,2/19/2019,11:08:00,0.075,NA,35,english,0,-2.5902671654458267,NA,NA,bad_rt
3980,11,2,1,151,banana_pos,banana_inhib,banana_pos,inhibition,control,distractor,target,L,banana_inhib,N,2/19/2019,11:08:00,0.083,NA,35,english,0,-2.488914671185539,NA,NA,bad_rt
3981,11,2,1,152,banana_inhib,banana_pos,banana_inhib,inhibition,inhib,distractor,target,L,banana_pos,N,2/19/2019,11:08:00,0.083,NA,35,english,0,-2.488914671185539,NA,NA,bad_rt
3982,11,2,1,153,cookie_pos,cookie_inhib,cookie_pos,inhibition,control,distractor,target,L,cookie_inhib,N,2/19/2019,11:08:00,0.068,NA,35,english,0,-2.6882475738060303,NA,NA,bad_rt
3983,11,2,1,154,cookie_pos,cookie_inhib,cookie_pos,inhibition,control,distractor,target,L,cookie_inhib,N,2/19/2019,11:08:00,0.057,NA,35,english,0,-2.864704011147587,NA,NA,bad_rt
3984,11,2,1,155,cookie_pos,cookie_pos,cookie_inhib,inhibition,control,target,distractor,L,cookie_pos,Y,2/19/2019,11:08:00,0.035,NA,35,english,1,-3.3524072174927233,NA,NA,bad_rt
3985,11,2,1,156,cookie_pos,cookie_pos,cookie_inhib,inhibition,control,target,distractor,L,cookie_pos,Y,2/19/2019,11:08:00,0.052,NA,35,english,1,-2.9565115604007097,NA,NA,bad_rt
3986,11,2,1,157,cookie_pos,cookie_pos,cookie_inhib,inhibition,control,target,distractor,R,cookie_inhib,N,2/19/2019,11:08:00,0.059,NA,35,english,0,-2.8302178350764176,NA,NA,bad_rt
3987,11,2,1,158,cookie_pos,cookie_pos,cookie_inhib,inhibition,control,target,distractor,R,cookie_inhib,N,2/19/2019,11:08:00,0.091,NA,35,english,0,-2.396895772465287,NA,NA,bad_rt
3988,11,2,1,159,cookie_inhib,cookie_pos,cookie_inhib,inhibition,inhib,distractor,target,R,cookie_inhib,Y,2/19/2019,11:08:00,0.053,NA,35,english,1,-2.9374633654300153,NA,NA,bad_rt
3990,11,2,1,2,flower_pos,flower_pos,flower_neg,negation,positive,target,distractor,R,flower_neg,N,2/19/2019,11:08:00,0.029,NA,35,english,0,-3.540459448995663,NA,NA,bad_rt
3991,11,2,1,3,cat_neg,cat_neg,cat_pos,negation,negative,target,distractor,L,cat_neg,Y,2/19/2019,11:08:00,0.123000000000001,NA,35,english,1,-2.0955709236097113,NA,NA,bad_rt
3992,11,2,1,4,bicycle_neg,bicycle_pos,bicycle_neg,negation,negative,distractor,target,L,bicycle_pos,N,2/19/2019,11:08:00,0.0450000000000008,NA,35,english,0,-3.1010927892117994,NA,NA,bad_rt
3995,11,2,1,3,cup_pos,cup_inhib,cup_pos,inhibition,control,distractor,target,L,cup_inhib,N,2/19/2019,11:08:00,0.06,NA,35,english,0,-2.8134107167600364,NA,NA,bad_rt
3996,11,2,1,4,cup_pos,cup_inhib,cup_pos,inhibition,control,distractor,target,L,cup_inhib,N,2/19/2019,11:08:00,0.013,NA,35,english,0,-4.3428059215206005,NA,NA,bad_rt
3997,11,2,1,5,cup_pos,cup_pos,cup_inhib,inhibition,control,target,distractor,R,cup_inhib,N,2/19/2019,11:08:00,0.086,NA,35,english,0,-2.4534079827286295,NA,NA,bad_rt
3998,11,2,1,6,cup_inhib,cup_inhib,cup_pos,inhibition,inhib,target,distractor,L,cup_inhib,Y,2/19/2019,11:08:00,0.115,NA,35,english,1,-2.162823150618887,NA,NA,bad_rt
3999,11,2,1,7,bird_pos,bird_pos,bird_inhib,inhibition,control,target,distractor,R,bird_inhib,N,2/19/2019,11:08:00,0.107,NA,35,english,0,-2.234926444520231,NA,NA,bad_rt
4000,11,2,1,8,bird_pos,bird_inhib,bird_pos,inhibition,control,distractor,target,R,bird_pos,Y,2/19/2019,11:08:00,0.016,NA,35,english,1,-4.135166556742356,NA,NA,bad_rt
4001,11,2,1,9,bird_pos,bird_inhib,bird_pos,inhibition,control,distractor,target,R,bird_pos,Y,2/19/2019,11:08:00,0.017,NA,35,english,1,-4.074541934925921,NA,NA,bad_rt
4002,11,2,1,10,bird_pos,bird_pos,bird_inhib,inhibition,control,target,distractor,R,bird_inhib,N,2/19/2019,11:08:00,0.032,NA,35,english,0,-3.4420193761824103,NA,NA,bad_rt
4003,11,2,1,11,bird_pos,bird_inhib,bird_pos,inhibition,control,distractor,target,R,bird_pos,Y,2/19/2019,11:08:00,0.019,NA,35,english,1,-3.9633162998156966,NA,NA,bad_rt
4004,11,2,1,12,bird_pos,bird_pos,bird_inhib,inhibition,control,target,distractor,R,bird_inhib,N,2/19/2019,11:08:00,0.02,NA,35,english,0,-3.912023005428146,NA,NA,bad_rt
4005,11,2,1,13,bird_inhib,bird_pos,bird_inhib,inhibition,inhib,distractor,target,R,bird_inhib,Y,2/19/2019,11:08:00,0.009,NA,35,english,1,-4.710530701645918,NA,NA,bad_rt
4006,11,2,1,14,lamp_pos,lamp_inhib,lamp_pos,inhibition,control,distractor,target,R,lamp_pos,Y,2/19/2019,11:08:00,0.049,NA,35,english,1,-3.0159349808715104,NA,NA,bad_rt
4007,11,2,1,15,lamp_pos,lamp_pos,lamp_inhib,inhibition,control,target,distractor,R,lamp_inhib,N,2/19/2019,11:08:00,0.036,NA,35,english,0,-3.3242363405260273,NA,NA,bad_rt
4008,11,2,1,16,lamp_pos,lamp_inhib,lamp_pos,inhibition,control,distractor,target,R,lamp_pos,Y,2/19/2019,11:08:00,0.018,NA,35,english,1,-4.017383521085972,NA,NA,bad_rt
4009,11,2,1,17,lamp_pos,lamp_pos,lamp_inhib,inhibition,control,target,distractor,R,lamp_inhib,N,2/19/2019,11:08:00,0.032,NA,35,english,0,-3.4420193761824103,NA,NA,bad_rt
4010,11,2,1,18,lamp_pos,lamp_inhib,lamp_pos,inhibition,control,distractor,target,R,lamp_pos,Y,2/19/2019,11:08:00,0.019,NA,35,english,1,-3.9633162998156966,NA,NA,bad_rt
4011,11,2,1,19,lamp_pos,lamp_pos,lamp_inhib,inhibition,control,target,distractor,R,lamp_inhib,N,2/19/2019,11:08:00,0.024,NA,35,english,0,-3.7297014486341915,NA,NA,bad_rt
4012,11,2,1,20,lamp_inhib,lamp_pos,lamp_inhib,inhibition,inhib,distractor,target,R,lamp_inhib,Y,2/19/2019,11:08:00,0.021,NA,35,english,1,-3.863232841258714,NA,NA,bad_rt
4013,11,2,1,21,cookie_pos,cookie_pos,cookie_inhib,inhibition,control,target,distractor,R,cookie_inhib,N,2/19/2019,11:08:00,0.032,NA,35,english,0,-3.4420193761824103,NA,NA,bad_rt
4014,11,2,1,22,cookie_pos,cookie_inhib,cookie_pos,inhibition,control,distractor,target,R,cookie_pos,Y,2/19/2019,11:08:00,0.034,NA,35,english,1,-3.3813947543659757,NA,NA,bad_rt
4015,11,2,1,23,cookie_pos,cookie_inhib,cookie_pos,inhibition,control,distractor,target,R,cookie_pos,Y,2/19/2019,11:08:00,0.029,NA,35,english,1,-3.540459448995663,NA,NA,bad_rt
4016,11,2,1,24,cookie_pos,cookie_pos,cookie_inhib,inhibition,control,target,distractor,R,cookie_inhib,N,2/19/2019,11:08:00,0.036,NA,35,english,0,-3.3242363405260273,NA,NA,bad_rt
4017,11,2,1,25,cookie_pos,cookie_inhib,cookie_pos,inhibition,control,distractor,target,R,cookie_pos,Y,2/19/2019,11:08:00,0.033,NA,35,english,1,-3.4112477175156566,NA,NA,bad_rt
4018,11,2,1,26,cookie_inhib,cookie_inhib,cookie_pos,inhibition,inhib,target,distractor,R,cookie_pos,N,2/19/2019,11:08:00,0.023,NA,35,english,0,-3.7722610630529876,NA,NA,bad_rt
4019,11,2,1,27,flower_pos,flower_inhib,flower_pos,inhibition,control,distractor,target,R,flower_pos,Y,2/19/2019,11:08:00,0.031,NA,35,english,1,-3.473768074496991,NA,NA,bad_rt
4020,11,2,1,28,flower_pos,flower_inhib,flower_pos,inhibition,control,distractor,target,R,flower_pos,Y,2/19/2019,11:08:00,0.022,NA,35,english,1,-3.816712825623821,NA,NA,bad_rt
4021,11,2,1,29,flower_pos,flower_pos,flower_inhib,inhibition,control,target,distractor,R,flower_inhib,N,2/19/2019,11:08:00,0.04,NA,35,english,0,-3.2188758248682006,NA,NA,bad_rt
4022,11,2,1,30,flower_pos,flower_pos,flower_inhib,inhibition,control,target,distractor,R,flower_inhib,N,2/19/2019,11:08:00,0.021,NA,35,english,0,-3.863232841258714,NA,NA,bad_rt
4023,11,2,1,31,flower_pos,flower_pos,flower_inhib,inhibition,control,target,distractor,R,flower_inhib,N,2/19/2019,11:08:00,0.033,NA,35,english,0,-3.4112477175156566,NA,NA,bad_rt
4024,11,2,1,32,flower_pos,flower_pos,flower_inhib,inhibition,control,target,distractor,R,flower_inhib,N,2/19/2019,11:08:00,0.041,NA,35,english,0,-3.1941832122778293,NA,NA,bad_rt
4025,11,2,1,33,flower_inhib,flower_pos,flower_inhib,inhibition,inhib,distractor,target,R,flower_inhib,Y,2/19/2019,11:08:00,0.028,NA,35,english,1,-3.575550768806933,NA,NA,bad_rt
4026,11,2,1,34,cat_pos,cat_inhib,cat_pos,inhibition,control,distractor,target,R,cat_pos,Y,2/19/2019,11:08:00,0.04,NA,35,english,1,-3.2188758248682006,NA,NA,bad_rt
4027,11,2,1,35,cat_pos,cat_inhib,cat_pos,inhibition,control,distractor,target,R,cat_pos,Y,2/19/2019,11:08:00,0.035,NA,35,english,1,-3.3524072174927233,NA,NA,bad_rt
4028,11,2,1,36,cat_pos,cat_pos,cat_inhib,inhibition,control,target,distractor,R,cat_inhib,N,2/19/2019,11:08:00,0.023,NA,35,english,0,-3.7722610630529876,NA,NA,bad_rt
4029,11,2,1,37,cat_pos,cat_inhib,cat_pos,inhibition,control,distractor,target,R,cat_pos,Y,2/19/2019,11:08:00,0.039,NA,35,english,1,-3.2441936328524905,NA,NA,bad_rt
4030,11,2,1,38,cat_pos,cat_pos,cat_inhib,inhibition,control,target,distractor,R,cat_inhib,N,2/19/2019,11:08:00,0.05,NA,35,english,0,-2.995732273553991,NA,NA,bad_rt
4031,11,2,1,39,cat_pos,cat_inhib,cat_pos,inhibition,control,distractor,target,R,cat_pos,Y,2/19/2019,11:08:00,0.042,NA,35,english,1,-3.170085660698769,NA,NA,bad_rt
4032,11,2,1,40,cat_inhib,cat_inhib,cat_pos,inhibition,inhib,target,distractor,R,cat_pos,N,2/19/2019,11:08:00,0.043,NA,35,english,0,-3.146555163288575,NA,NA,bad_rt
4034,11,2,1,42,bicycle_pos,bicycle_pos,bicycle_inhib,inhibition,control,target,distractor,R,bicycle_inhib,N,2/19/2019,11:08:00,0.057,NA,35,english,0,-2.864704011147587,NA,NA,bad_rt
4035,11,2,1,43,bicycle_pos,bicycle_inhib,bicycle_pos,inhibition,control,distractor,target,R,bicycle_pos,Y,2/19/2019,11:08:00,0.024,NA,35,english,1,-3.7297014486341915,NA,NA,bad_rt
4036,11,2,1,44,bicycle_pos,bicycle_inhib,bicycle_pos,inhibition,control,distractor,target,L,bicycle_inhib,N,2/19/2019,11:08:00,0.017,NA,35,english,0,-4.074541934925921,NA,NA,bad_rt
4037,11,2,1,45,bicycle_pos,bicycle_inhib,bicycle_pos,inhibition,control,distractor,target,R,bicycle_pos,Y,2/19/2019,11:08:00,0.109,NA,35,english,1,-2.2164073967529934,NA,NA,bad_rt
4038,11,2,1,46,bicycle_inhib,bicycle_pos,bicycle_inhib,inhibition,inhib,distractor,target,R,bicycle_inhib,Y,2/19/2019,11:08:00,0.027,NA,35,english,1,-3.611918412977808,NA,NA,bad_rt
4039,11,2,1,47,banana_pos,banana_inhib,banana_pos,inhibition,control,distractor,target,R,banana_pos,Y,2/19/2019,11:08:00,0.041,NA,35,english,1,-3.1941832122778293,NA,NA,bad_rt
4040,11,2,1,48,banana_pos,banana_inhib,banana_pos,inhibition,control,distractor,target,R,banana_pos,Y,2/19/2019,11:08:00,0.035,NA,35,english,1,-3.3524072174927233,NA,NA,bad_rt
4041,11,2,1,49,banana_pos,banana_pos,banana_inhib,inhibition,control,target,distractor,R,banana_inhib,N,2/19/2019,11:08:00,0.075,NA,35,english,0,-2.5902671654458267,NA,NA,bad_rt
4042,11,2,1,50,banana_pos,banana_pos,banana_inhib,inhibition,control,target,distractor,R,banana_inhib,N,2/19/2019,11:08:00,0.083,NA,35,english,0,-2.488914671185539,NA,NA,bad_rt
4043,11,2,1,51,banana_pos,banana_inhib,banana_pos,inhibition,control,distractor,target,R,banana_pos,Y,2/19/2019,11:08:00,0.06,NA,35,english,1,-2.8134107167600364,NA,NA,bad_rt
4044,11,2,1,52,banana_inhib,banana_inhib,banana_pos,inhibition,inhib,target,distractor,R,banana_pos,N,2/19/2019,11:08:00,0.084,NA,35,english,0,-2.4769384801388235,NA,NA,bad_rt
4045,11,2,1,53,teddybear_pos,teddybear_inhib,teddybear_pos,inhibition,control,distractor,target,R,teddybear_pos,Y,2/19/2019,11:08:00,0.051,NA,35,english,1,-2.9759296462578115,NA,NA,bad_rt
4046,11,2,1,54,teddybear_pos,teddybear_inhib,teddybear_pos,inhibition,control,distractor,target,R,teddybear_pos,Y,2/19/2019,11:08:00,0.027,NA,35,english,1,-3.611918412977808,NA,NA,bad_rt
4047,11,2,1,55,teddybear_pos,teddybear_pos,teddybear_inhib,inhibition,control,target,distractor,R,teddybear_inhib,N,2/19/2019,11:08:00,0.053,NA,35,english,0,-2.9374633654300153,NA,NA,bad_rt
4048,11,2,1,56,teddybear_pos,teddybear_pos,teddybear_inhib,inhibition,control,target,distractor,R,teddybear_inhib,N,2/19/2019,11:08:00,0.029,NA,35,english,0,-3.540459448995663,NA,NA,bad_rt
4049,11,2,1,57,teddybear_pos,teddybear_pos,teddybear_inhib,inhibition,control,target,distractor,R,teddybear_inhib,N,2/19/2019,11:08:00,0.053,NA,35,english,0,-2.9374633654300153,NA,NA,bad_rt
4050,11,2,1,58,teddybear_pos,teddybear_inhib,teddybear_pos,inhibition,control,distractor,target,R,teddybear_pos,Y,2/19/2019,11:08:00,0.043,NA,35,english,1,-3.146555163288575,NA,NA,bad_rt
4051,11,2,1,59,teddybear_inhib,teddybear_pos,teddybear_inhib,inhibition,inhib,distractor,target,R,teddybear_inhib,Y,2/19/2019,11:08:00,0.052,NA,35,english,1,-2.9565115604007097,NA,NA,bad_rt
4052,11,2,1,60,dog_pos,dog_inhib,dog_pos,inhibition,control,distractor,target,R,dog_pos,Y,2/19/2019,11:08:00,0.029,NA,35,english,1,-3.540459448995663,NA,NA,bad_rt
4053,11,2,1,61,dog_pos,dog_pos,dog_inhib,inhibition,control,target,distractor,L,dog_pos,Y,2/19/2019,11:08:00,0.018,NA,35,english,1,-4.017383521085972,NA,NA,bad_rt
4054,11,2,1,62,dog_pos,dog_pos,dog_inhib,inhibition,control,target,distractor,R,dog_inhib,N,2/19/2019,11:08:00,0.047,NA,35,english,0,-3.0576076772720784,NA,NA,bad_rt
4055,11,2,1,63,dog_pos,dog_pos,dog_inhib,inhibition,control,target,distractor,R,dog_inhib,N,2/19/2019,11:08:00,0.052,NA,35,english,0,-2.9565115604007097,NA,NA,bad_rt
4056,11,2,1,64,dog_pos,dog_inhib,dog_pos,inhibition,control,distractor,target,R,dog_pos,Y,2/19/2019,11:08:00,0.043,NA,35,english,1,-3.146555163288575,NA,NA,bad_rt
4057,11,2,1,65,dog_pos,dog_pos,dog_inhib,inhibition,control,target,distractor,R,dog_inhib,N,2/19/2019,11:08:00,0.067,NA,35,english,0,-2.703062659591171,NA,NA,bad_rt
4058,11,2,1,66,dog_inhib,dog_pos,dog_inhib,inhibition,inhib,distractor,target,R,dog_inhib,Y,2/19/2019,11:08:00,0.035,NA,35,english,1,-3.3524072174927233,NA,NA,bad_rt
4059,11,2,1,67,car_pos,car_inhib,car_pos,inhibition,control,distractor,target,R,car_pos,Y,2/19/2019,11:08:00,0.051,NA,35,english,1,-2.9759296462578115,NA,NA,bad_rt
4060,11,2,1,68,car_pos,car_pos,car_inhib,inhibition,control,target,distractor,R,car_inhib,N,2/19/2019,11:08:00,0.035,NA,35,english,0,-3.3524072174927233,NA,NA,bad_rt
4061,11,2,1,69,car_pos,car_inhib,car_pos,inhibition,control,distractor,target,R,car_pos,Y,2/19/2019,11:08:00,0.046,NA,35,english,1,-3.079113882493042,NA,NA,bad_rt
4062,11,2,1,70,car_pos,car_pos,car_inhib,inhibition,control,target,distractor,R,car_inhib,N,2/19/2019,11:08:00,0.051,NA,35,english,0,-2.9759296462578115,NA,NA,bad_rt
4063,11,2,1,71,car_pos,car_inhib,car_pos,inhibition,control,distractor,target,R,car_pos,Y,2/19/2019,11:08:00,0.083,NA,35,english,1,-2.488914671185539,NA,NA,bad_rt
4064,11,2,1,72,car_pos,car_pos,car_inhib,inhibition,control,target,distractor,R,car_inhib,N,2/19/2019,11:08:00,0.085,NA,35,english,0,-2.4651040224918206,NA,NA,bad_rt
4065,11,2,1,73,car_inhib,car_inhib,car_pos,inhibition,inhib,target,distractor,R,car_pos,N,2/19/2019,11:08:00,0.074,NA,35,english,0,-2.6036901857779675,NA,NA,bad_rt
4066,11,2,1,74,apple_pos,apple_pos,apple_inhib,inhibition,control,target,distractor,R,apple_inhib,N,2/19/2019,11:08:00,0.108,NA,35,english,0,-2.2256240518579173,NA,NA,bad_rt
4067,11,2,1,75,apple_pos,apple_inhib,apple_pos,inhibition,control,distractor,target,R,apple_pos,Y,2/19/2019,11:08:00,0.09,NA,35,english,1,-2.4079456086518722,NA,NA,bad_rt
4068,11,2,1,76,apple_pos,apple_inhib,apple_pos,inhibition,control,distractor,target,R,apple_pos,Y,2/19/2019,11:08:00,0.082,NA,35,english,1,-2.501036031717884,NA,NA,bad_rt
4069,11,2,1,77,apple_pos,apple_pos,apple_inhib,inhibition,control,target,distractor,R,apple_inhib,N,2/19/2019,11:08:00,0.068,NA,35,english,0,-2.6882475738060303,NA,NA,bad_rt
4070,11,2,1,78,apple_pos,apple_inhib,apple_pos,inhibition,control,distractor,target,R,apple_pos,Y,2/19/2019,11:08:00,0.075,NA,35,english,1,-2.5902671654458267,NA,NA,bad_rt
4071,11,2,1,79,apple_inhib,apple_pos,apple_inhib,inhibition,inhib,distractor,target,R,apple_inhib,Y,2/19/2019,11:08:00,0.079,NA,35,english,1,-2.5383074265151158,NA,NA,bad_rt
4072,11,2,1,80,car_pos,car_inhib,car_pos,inhibition,control,distractor,target,R,car_pos,Y,2/19/2019,11:08:00,0.054,NA,35,english,1,-2.9187712324178627,NA,NA,bad_rt
4073,11,2,1,81,car_pos,car_pos,car_inhib,inhibition,control,target,distractor,R,car_inhib,N,2/19/2019,11:08:00,0.06,NA,35,english,0,-2.8134107167600364,NA,NA,bad_rt
4074,11,2,1,82,car_pos,car_inhib,car_pos,inhibition,control,distractor,target,R,car_pos,Y,2/19/2019,11:08:00,0.061,NA,35,english,1,-2.796881414808826,NA,NA,bad_rt
4075,11,2,1,83,car_pos,car_pos,car_inhib,inhibition,control,target,distractor,R,car_inhib,N,2/19/2019,11:08:00,0.085,NA,35,english,0,-2.4651040224918206,NA,NA,bad_rt
4076,11,2,1,84,car_pos,car_pos,car_inhib,inhibition,control,target,distractor,R,car_inhib,N,2/19/2019,11:08:00,0.051,NA,35,english,0,-2.9759296462578115,NA,NA,bad_rt
4077,11,2,1,85,car_pos,car_inhib,car_pos,inhibition,control,distractor,target,R,car_pos,Y,2/19/2019,11:08:00,0.052,NA,35,english,1,-2.9565115604007097,NA,NA,bad_rt
4078,11,2,1,86,car_inhib,car_pos,car_inhib,inhibition,inhib,distractor,target,R,car_inhib,Y,2/19/2019,11:08:00,0.085,NA,35,english,1,-2.4651040224918206,NA,NA,bad_rt
4079,11,2,1,87,bird_pos,bird_pos,bird_inhib,inhibition,control,target,distractor,R,bird_inhib,N,2/19/2019,11:08:00,0.076,NA,35,english,0,-2.577021938695806,NA,NA,bad_rt
4080,11,2,1,88,bird_pos,bird_pos,bird_inhib,inhibition,control,target,distractor,R,bird_inhib,N,2/19/2019,11:08:00,0.085,NA,35,english,0,-2.4651040224918206,NA,NA,bad_rt
4081,11,2,1,89,bird_pos,bird_inhib,bird_pos,inhibition,control,distractor,target,R,bird_pos,Y,2/19/2019,11:08:00,0.068,NA,35,english,1,-2.6882475738060303,NA,NA,bad_rt
4082,11,2,1,90,bird_pos,bird_inhib,bird_pos,inhibition,control,distractor,target,R,bird_pos,Y,2/19/2019,11:08:00,0.074,NA,35,english,1,-2.6036901857779675,NA,NA,bad_rt
4083,11,2,1,91,bird_pos,bird_inhib,bird_pos,inhibition,control,distractor,target,R,bird_pos,Y,2/19/2019,11:08:00,0.068,NA,35,english,1,-2.6882475738060303,NA,NA,bad_rt
4084,11,2,1,92,bird_inhib,bird_inhib,bird_pos,inhibition,inhib,target,distractor,R,bird_pos,N,2/19/2019,11:08:00,0.084,NA,35,english,0,-2.4769384801388235,NA,NA,bad_rt
4085,11,2,1,93,dog_pos,dog_inhib,dog_pos,inhibition,control,distractor,target,R,dog_pos,Y,2/19/2019,11:08:00,0.1,NA,35,english,1,-2.3025850929940455,NA,NA,bad_rt
4086,11,2,1,94,dog_pos,dog_inhib,dog_pos,inhibition,control,distractor,target,R,dog_pos,Y,2/19/2019,11:08:00,0.068,NA,35,english,1,-2.6882475738060303,NA,NA,bad_rt
4087,11,2,1,95,dog_pos,dog_pos,dog_inhib,inhibition,control,target,distractor,R,dog_inhib,N,2/19/2019,11:08:00,0.084,NA,35,english,0,-2.4769384801388235,NA,NA,bad_rt
4088,11,2,1,96,dog_pos,dog_pos,dog_inhib,inhibition,control,target,distractor,R,dog_inhib,N,2/19/2019,11:08:00,0.067,NA,35,english,0,-2.703062659591171,NA,NA,bad_rt
4089,11,2,1,97,dog_pos,dog_pos,dog_inhib,inhibition,control,target,distractor,R,dog_inhib,N,2/19/2019,11:08:00,0.05,NA,35,english,0,-2.995732273553991,NA,NA,bad_rt
4090,11,2,1,98,dog_pos,dog_inhib,dog_pos,inhibition,control,distractor,target,R,dog_pos,Y,2/19/2019,11:08:00,0.107,NA,35,english,1,-2.234926444520231,NA,NA,bad_rt
4091,11,2,1,99,dog_inhib,dog_inhib,dog_pos,inhibition,inhib,target,distractor,R,dog_pos,N,2/19/2019,11:08:00,0.082,NA,35,english,0,-2.501036031717884,NA,NA,bad_rt
4092,11,2,1,100,apple_pos,apple_pos,apple_inhib,inhibition,control,target,distractor,R,apple_inhib,N,2/19/2019,11:08:00,0.068,NA,35,english,0,-2.6882475738060303,NA,NA,bad_rt
4093,11,2,1,101,apple_pos,apple_pos,apple_inhib,inhibition,control,target,distractor,R,apple_inhib,N,2/19/2019,11:08:00,0.076,NA,35,english,0,-2.577021938695806,NA,NA,bad_rt
4094,11,2,1,102,apple_pos,apple_pos,apple_inhib,inhibition,control,target,distractor,R,apple_inhib,N,2/19/2019,11:08:00,0.036,NA,35,english,0,-3.3242363405260273,NA,NA,bad_rt
4095,11,2,1,103,apple_pos,apple_pos,apple_inhib,inhibition,control,target,distractor,R,apple_inhib,N,2/19/2019,11:08:00,0.06,NA,35,english,0,-2.8134107167600364,NA,NA,bad_rt
4096,11,2,1,104,apple_pos,apple_inhib,apple_pos,inhibition,control,distractor,target,R,apple_pos,Y,2/19/2019,11:08:00,0.053,NA,35,english,1,-2.9374633654300153,NA,NA,bad_rt
4097,11,2,1,105,apple_pos,apple_inhib,apple_pos,inhibition,control,distractor,target,R,apple_pos,Y,2/19/2019,11:08:00,0.069,NA,35,english,1,-2.6736487743848776,NA,NA,bad_rt
4098,11,2,1,106,apple_inhib,apple_pos,apple_inhib,inhibition,inhib,distractor,target,R,apple_inhib,Y,2/19/2019,11:08:00,0.051,NA,35,english,1,-2.9759296462578115,NA,NA,bad_rt
4099,11,2,1,107,flower_pos,flower_pos,flower_inhib,inhibition,control,target,distractor,R,flower_inhib,N,2/19/2019,11:08:00,0.057,NA,35,english,0,-2.864704011147587,NA,NA,bad_rt
4100,11,2,1,108,flower_pos,flower_pos,flower_inhib,inhibition,control,target,distractor,R,flower_inhib,N,2/19/2019,11:08:00,0.054,NA,35,english,0,-2.9187712324178627,NA,NA,bad_rt
4101,11,2,1,109,flower_pos,flower_inhib,flower_pos,inhibition,control,distractor,target,R,flower_pos,Y,2/19/2019,11:08:00,0.054,NA,35,english,1,-2.9187712324178627,NA,NA,bad_rt
4102,11,2,1,110,flower_pos,flower_pos,flower_inhib,inhibition,control,target,distractor,R,flower_inhib,N,2/19/2019,11:08:00,0.059,NA,35,english,0,-2.8302178350764176,NA,NA,bad_rt
4103,11,2,1,111,flower_pos,flower_pos,flower_inhib,inhibition,control,target,distractor,R,flower_inhib,N,2/19/2019,11:08:00,0.06,NA,35,english,0,-2.8134107167600364,NA,NA,bad_rt
4104,11,2,1,112,flower_pos,flower_pos,flower_inhib,inhibition,control,target,distractor,R,flower_inhib,N,2/19/2019,11:08:00,0.056,NA,35,english,0,-2.8824035882469876,NA,NA,bad_rt
4105,11,2,1,113,flower_inhib,flower_pos,flower_inhib,inhibition,inhib,distractor,target,R,flower_inhib,Y,2/19/2019,11:08:00,0.07,NA,35,english,1,-2.659260036932778,NA,NA,bad_rt
4106,11,2,1,114,teddybear_pos,teddybear_pos,teddybear_inhib,inhibition,control,target,distractor,R,teddybear_inhib,N,2/19/2019,11:08:00,0.064,NA,35,english,0,-2.7488721956224653,NA,NA,bad_rt
4107,11,2,1,115,teddybear_pos,teddybear_pos,teddybear_inhib,inhibition,control,target,distractor,R,teddybear_inhib,N,2/19/2019,11:08:00,0.076,NA,35,english,0,-2.577021938695806,NA,NA,bad_rt
4108,11,2,1,116,teddybear_pos,teddybear_pos,teddybear_inhib,inhibition,control,target,distractor,R,teddybear_inhib,N,2/19/2019,11:08:00,0.106,NA,35,english,0,-2.24431618487007,NA,NA,bad_rt
4109,11,2,1,117,teddybear_pos,teddybear_pos,teddybear_inhib,inhibition,control,target,distractor,R,teddybear_inhib,N,2/19/2019,11:08:00,0.049,NA,35,english,0,-3.0159349808715104,NA,NA,bad_rt
4110,11,2,1,118,teddybear_pos,teddybear_pos,teddybear_inhib,inhibition,control,target,distractor,R,teddybear_inhib,N,2/19/2019,11:08:00,0.094,NA,35,english,0,-2.364460496712133,NA,NA,bad_rt
4111,11,2,1,119,teddybear_inhib,teddybear_pos,teddybear_inhib,inhibition,inhib,distractor,target,R,teddybear_inhib,Y,2/19/2019,11:08:00,0.04,NA,35,english,1,-3.2188758248682006,NA,NA,bad_rt
4112,11,2,1,120,cat_pos,cat_pos,cat_inhib,inhibition,control,target,distractor,R,cat_inhib,N,2/19/2019,11:08:00,0.116,NA,35,english,0,-2.1541650878757723,NA,NA,bad_rt
4113,11,2,1,121,cat_pos,cat_inhib,cat_pos,inhibition,control,distractor,target,R,cat_pos,Y,2/19/2019,11:08:00,0.099,NA,35,english,1,-2.312635428847547,NA,NA,bad_rt
4114,11,2,1,122,cat_pos,cat_pos,cat_inhib,inhibition,control,target,distractor,R,cat_inhib,N,2/19/2019,11:08:00,0.099,NA,35,english,0,-2.312635428847547,NA,NA,bad_rt
4119,11,2,1,127,lamp_pos,lamp_inhib,lamp_pos,inhibition,control,distractor,target,R,lamp_pos,Y,2/19/2019,11:08:00,0.076,NA,35,english,1,-2.577021938695806,NA,NA,bad_rt
4120,11,2,1,128,lamp_pos,lamp_pos,lamp_inhib,inhibition,control,target,distractor,R,lamp_inhib,N,2/19/2019,11:08:00,0.13,NA,35,english,0,-2.0402208285265546,NA,NA,bad_rt
4121,11,2,1,129,lamp_pos,lamp_pos,lamp_inhib,inhibition,control,target,distractor,R,lamp_inhib,N,2/19/2019,11:08:00,0.074,NA,35,english,0,-2.6036901857779675,NA,NA,bad_rt
4122,11,2,1,130,lamp_pos,lamp_pos,lamp_inhib,inhibition,control,target,distractor,R,lamp_inhib,N,2/19/2019,11:08:00,0.075,NA,35,english,0,-2.5902671654458267,NA,NA,bad_rt
4123,11,2,1,131,lamp_pos,lamp_inhib,lamp_pos,inhibition,control,distractor,target,R,lamp_pos,Y,2/19/2019,11:08:00,0.092,NA,35,english,1,-2.385966701933097,NA,NA,bad_rt
4124,11,2,1,132,lamp_pos,lamp_inhib,lamp_pos,inhibition,control,distractor,target,R,lamp_pos,Y,2/19/2019,11:08:00,0.116,NA,35,english,1,-2.1541650878757723,NA,NA,bad_rt
4125,11,2,1,133,lamp_inhib,lamp_pos,lamp_inhib,inhibition,inhib,distractor,target,L,lamp_pos,N,2/19/2019,11:08:00,0.074,NA,35,english,0,-2.6036901857779675,NA,NA,bad_rt
4126,11,2,1,134,bicycle_pos,bicycle_pos,bicycle_inhib,inhibition,control,target,distractor,L,bicycle_pos,Y,2/19/2019,11:08:00,0.035,NA,35,english,1,-3.3524072174927233,NA,NA,bad_rt
4127,11,2,1,135,bicycle_pos,bicycle_pos,bicycle_inhib,inhibition,control,target,distractor,L,bicycle_pos,Y,2/19/2019,11:08:00,0.101,NA,35,english,1,-2.2926347621408776,NA,NA,bad_rt
4129,11,2,1,137,bicycle_pos,bicycle_inhib,bicycle_pos,inhibition,control,distractor,target,R,bicycle_pos,Y,2/19/2019,11:08:00,0.09,NA,35,english,1,-2.4079456086518722,NA,NA,bad_rt
4130,11,2,1,138,bicycle_pos,bicycle_pos,bicycle_inhib,inhibition,control,target,distractor,R,bicycle_inhib,N,2/19/2019,11:08:00,0.057,NA,35,english,0,-2.864704011147587,NA,NA,bad_rt
4131,11,2,1,139,bicycle_inhib,bicycle_pos,bicycle_inhib,inhibition,inhib,distractor,target,R,bicycle_inhib,Y,2/19/2019,11:08:00,0.084,NA,35,english,1,-2.4769384801388235,NA,NA,bad_rt
4132,11,2,1,140,cup_pos,cup_inhib,cup_pos,inhibition,control,distractor,target,R,cup_pos,Y,2/19/2019,11:08:00,0.1,NA,35,english,1,-2.3025850929940455,NA,NA,bad_rt
4133,11,2,1,141,cup_pos,cup_inhib,cup_pos,inhibition,control,distractor,target,R,cup_pos,Y,2/19/2019,11:08:00,0.067,NA,35,english,1,-2.703062659591171,NA,NA,bad_rt
4134,11,2,1,142,cup_pos,cup_pos,cup_inhib,inhibition,control,target,distractor,R,cup_inhib,N,2/19/2019,11:08:00,0.098,NA,35,english,0,-2.322787800311565,NA,NA,bad_rt
4135,11,2,1,143,cup_pos,cup_pos,cup_inhib,inhibition,control,target,distractor,R,cup_inhib,N,2/19/2019,11:08:00,0.09,NA,35,english,0,-2.4079456086518722,NA,NA,bad_rt
4136,11,2,1,144,cup_pos,cup_pos,cup_inhib,inhibition,control,target,distractor,R,cup_inhib,N,2/19/2019,11:08:00,0.068,NA,35,english,0,-2.6882475738060303,NA,NA,bad_rt
4138,11,2,1,146,cup_inhib,cup_inhib,cup_pos,inhibition,inhib,target,distractor,R,cup_pos,N,2/19/2019,11:08:00,0.027,NA,35,english,0,-3.611918412977808,NA,NA,bad_rt
4139,11,2,1,109,cup_neg,cup_pos,cup_neg,negation,negative,distractor,target,R,cup_neg,Y,2/19/2019,11:08:00,0.09000000000000069,NA,35,english,1,-2.4079456086518642,NA,NA,bad_rt
4140,11,2,1,110,cat_pos,cat_pos,cat_neg,negation,positive,target,distractor,R,cat_neg,N,2/19/2019,11:08:00,0.042,NA,35,english,0,-3.170085660698769,NA,NA,bad_rt
4141,11,2,1,111,banana_neg,banana_neg,banana_pos,negation,negative,target,distractor,R,banana_pos,N,2/19/2019,11:08:00,0.076000000000001,NA,35,english,0,-2.577021938695793,NA,NA,bad_rt
4142,11,2,1,112,bird_neg,bird_pos,bird_neg,negation,negative,distractor,target,L,bird_pos,N,2/19/2019,11:08:00,0.0289999999999998,NA,35,english,0,-3.5404594489956698,NA,NA,bad_rt
4143,11,2,1,113,apple_neg,apple_pos,apple_neg,negation,negative,distractor,target,L,apple_pos,N,2/19/2019,11:08:00,0.047999999999997794,NA,35,english,0,-3.036554268074292,NA,NA,bad_rt
4144,11,2,1,114,car_neg,car_pos,car_neg,negation,negative,distractor,target,L,car_pos,N,2/19/2019,11:08:00,0.102,NA,35,english,0,-2.282782465697866,NA,NA,bad_rt
4145,11,2,1,115,lamp_pos,lamp_pos,lamp_neg,negation,positive,target,distractor,L,lamp_pos,Y,2/19/2019,11:08:00,0.02,NA,35,english,1,-3.912023005428146,NA,NA,bad_rt
4146,11,2,1,116,dog_pos,dog_neg,dog_pos,negation,positive,distractor,target,L,dog_neg,N,2/19/2019,11:08:00,0.034,NA,35,english,0,-3.3813947543659757,NA,NA,bad_rt
4147,11,2,1,117,bicycle_pos,bicycle_neg,bicycle_pos,negation,positive,distractor,target,L,bicycle_neg,N,2/19/2019,11:08:00,0.009,NA,35,english,0,-4.710530701645918,NA,NA,bad_rt
4148,11,2,1,118,cookie_neg,cookie_pos,cookie_neg,negation,negative,distractor,target,L,cookie_pos,N,2/19/2019,11:08:00,0.0200000000000005,NA,35,english,0,-3.912023005428121,NA,NA,bad_rt
4149,11,2,1,119,teddybear_neg,teddybear_pos,teddybear_neg,negation,negative,distractor,target,R,teddybear_neg,Y,2/19/2019,11:08:00,0.14799999999999802,NA,35,english,1,-1.9105430052180354,NA,NA,bad_rt
4150,11,2,1,120,flower_pos,flower_neg,flower_pos,negation,positive,distractor,target,R,flower_pos,Y,2/19/2019,11:08:00,0.044,NA,35,english,1,-3.123565645063876,NA,NA,bad_rt
4152,11,2,1,2,bicycle_implic,bicycle_control,bicycle_implic,implicature,implicature,distractor,target,L,bicycle_control,N,2/19/2019,11:08:00,0.107,NA,35,english,0,-2.234926444520231,NA,NA,bad_rt
4153,11,2,1,3,cup_implic,cup_control,cup_implic,implicature,implicature,distractor,target,L,cup_control,N,2/19/2019,11:08:00,0.115,NA,35,english,0,-2.162823150618887,NA,NA,bad_rt
4154,11,2,1,4,teddybear_implic,teddybear_implic,teddybear_control,implicature,implicature,target,distractor,L,teddybear_implic,Y,2/19/2019,11:08:00,0.102,NA,35,english,1,-2.282782465697866,NA,NA,bad_rt
4155,11,2,1,5,bird_implic,bird_implic,bird_control,implicature,implicature,target,distractor,L,bird_implic,Y,2/19/2019,11:08:00,0.164,NA,35,english,1,-1.8078888511579385,NA,NA,bad_rt
4156,11,2,1,6,apple_implic,apple_implic,apple_control,implicature,implicature,target,distractor,L,apple_implic,Y,2/19/2019,11:08:00,0.102,NA,35,english,1,-2.282782465697866,NA,NA,bad_rt
4157,11,2,1,7,dog_implic,dog_implic,dog_control,implicature,implicature,target,distractor,L,dog_implic,Y,2/19/2019,11:08:00,0.108,NA,35,english,1,-2.2256240518579173,NA,NA,bad_rt
4158,11,2,1,8,cookie_control,cookie_foil,cookie_control,implicature,unambiguous,distractor,target,L,cookie_foil,N,2/19/2019,11:08:00,0.096,NA,35,english,0,-2.3434070875143007,NA,NA,bad_rt
4159,11,2,1,9,banana_control,banana_foil,banana_control,implicature,unambiguous,distractor,target,L,banana_foil,N,2/19/2019,11:08:00,0.058,NA,35,english,0,-2.8473122684357177,NA,NA,bad_rt
4160,11,2,1,10,flower_implic,flower_implic,flower_control,implicature,implicature,target,distractor,L,flower_implic,Y,2/19/2019,11:08:00,0.075,NA,35,english,1,-2.5902671654458267,NA,NA,bad_rt
4161,11,2,1,11,car_implic,car_control,car_implic,implicature,implicature,distractor,target,L,car_control,N,2/19/2019,11:08:00,0.06,NA,35,english,0,-2.8134107167600364,NA,NA,bad_rt
4162,11,2,1,12,lamp_control,lamp_foil,lamp_control,implicature,unambiguous,distractor,target,L,lamp_foil,N,2/19/2019,11:08:00,0.076,NA,35,english,0,-2.577021938695806,NA,NA,bad_rt
4163,11,2,1,13,apple_control,apple_control,apple_foil,implicature,unambiguous,target,distractor,L,apple_control,Y,2/19/2019,11:08:00,0.078,NA,35,english,1,-2.551046452292545,NA,NA,bad_rt
4164,11,2,1,14,dog_control,dog_foil,dog_control,implicature,unambiguous,distractor,target,L,dog_foil,N,2/19/2019,11:08:00,0.056,NA,35,english,0,-2.8824035882469876,NA,NA,bad_rt
4165,11,2,1,15,cup_control,cup_control,cup_foil,implicature,unambiguous,target,distractor,L,cup_control,Y,2/19/2019,11:08:00,0.093,NA,35,english,1,-2.375155785828881,NA,NA,bad_rt
4166,11,2,1,16,teddybear_control,teddybear_foil,teddybear_control,implicature,unambiguous,distractor,target,L,teddybear_foil,N,2/19/2019,11:08:00,0.084,NA,35,english,0,-2.4769384801388235,NA,NA,bad_rt
4167,11,2,1,17,bicycle_control,bicycle_control,bicycle_foil,implicature,unambiguous,target,distractor,L,bicycle_control,Y,2/19/2019,11:08:00,0.075,NA,35,english,1,-2.5902671654458267,NA,NA,bad_rt
4168,11,2,1,18,flower_control,flower_control,flower_foil,implicature,unambiguous,target,distractor,L,flower_control,Y,2/19/2019,11:08:00,0.075,NA,35,english,1,-2.5902671654458267,NA,NA,bad_rt
4169,11,2,1,19,cat_control,cat_control,cat_foil,implicature,unambiguous,target,distractor,L,cat_control,Y,2/19/2019,11:08:00,0.075,NA,35,english,1,-2.5902671654458267,NA,NA,bad_rt
4170,11,2,1,20,car_implic,car_control,car_implic,implicature,implicature,distractor,target,L,car_control,N,2/19/2019,11:08:00,0.098,NA,35,english,0,-2.322787800311565,NA,NA,bad_rt
4171,11,2,1,21,lamp_control,lamp_control,lamp_foil,implicature,unambiguous,target,distractor,L,lamp_control,Y,2/19/2019,11:08:00,0.081,NA,35,english,1,-2.513306124309698,NA,NA,bad_rt
4172,11,2,1,22,banana_implic,banana_implic,banana_control,implicature,implicature,target,distractor,L,banana_implic,Y,2/19/2019,11:08:00,0.058,NA,35,english,1,-2.8473122684357177,NA,NA,bad_rt
4173,11,2,1,23,bird_implic,bird_control,bird_implic,implicature,implicature,distractor,target,L,bird_control,N,2/19/2019,11:08:00,0.067,NA,35,english,0,-2.703062659591171,NA,NA,bad_rt
4174,11,2,1,23,flower_neg,flower_pos,flower_neg,negation,negative,distractor,target,R,flower_neg,Y,2/19/2019,11:08:00,0.174000000000001,NA,35,english,1,-1.7486999797676024,NA,NA,bad_rt
4175,11,2,1,24,teddybear_pos,teddybear_pos,teddybear_neg,negation,positive,target,distractor,R,teddybear_neg,N,2/19/2019,11:08:00,0.026,NA,35,english,0,-3.649658740960655,NA,NA,bad_rt
4176,11,2,1,25,lamp_pos,lamp_pos,lamp_neg,negation,positive,target,distractor,R,lamp_neg,N,2/19/2019,11:08:00,0.045,NA,35,english,0,-3.101092789211817,NA,NA,bad_rt
4177,11,2,1,26,flower_pos,flower_neg,flower_pos,negation,positive,distractor,target,R,flower_pos,Y,2/19/2019,11:08:00,0.027,NA,35,english,1,-3.611918412977808,NA,NA,bad_rt
4178,11,2,1,27,bicycle_pos,bicycle_pos,bicycle_neg,negation,positive,target,distractor,L,bicycle_pos,Y,2/19/2019,11:08:00,0.059,NA,35,english,1,-2.8302178350764176,NA,NA,bad_rt
4179,11,2,1,28,dog_pos,dog_neg,dog_pos,negation,positive,distractor,target,L,dog_neg,N,2/19/2019,11:08:00,0.133,NA,35,english,0,-2.017406150760383,NA,NA,bad_rt
4180,11,2,1,29,cup_neg,cup_neg,cup_pos,negation,negative,target,distractor,L,cup_neg,Y,2/19/2019,11:08:00,0.0670000000000007,NA,35,english,1,-2.7030626595911604,NA,NA,bad_rt
4181,11,2,1,30,apple_neg,apple_neg,apple_pos,negation,negative,target,distractor,L,apple_neg,Y,2/19/2019,11:08:00,0.132999999999998,NA,35,english,1,-2.017406150760398,NA,NA,bad_rt
4182,11,2,1,31,cookie_neg,cookie_neg,cookie_pos,negation,negative,target,distractor,L,cookie_neg,Y,2/19/2019,11:08:00,0.0200000000000005,NA,35,english,1,-3.912023005428121,NA,NA,bad_rt
4183,11,2,1,32,teddybear_pos,teddybear_pos,teddybear_neg,negation,positive,target,distractor,L,teddybear_pos,Y,2/19/2019,11:08:00,0.05,NA,35,english,1,-2.995732273553991,NA,NA,bad_rt
4185,11,2,1,34,cat_pos,cat_neg,cat_pos,negation,positive,distractor,target,L,cat_neg,N,2/19/2019,11:08:00,0.064,NA,35,english,0,-2.7488721956224653,NA,NA,bad_rt
4186,11,2,1,35,banana_pos,banana_pos,banana_neg,negation,positive,target,distractor,L,banana_pos,Y,2/19/2019,11:08:00,0.095,NA,35,english,1,-2.353878387381596,NA,NA,bad_rt
4187,11,2,1,36,car_pos,car_pos,car_neg,negation,positive,target,distractor,L,car_pos,Y,2/19/2019,11:08:00,0.062,NA,35,english,1,-2.7806208939370456,NA,NA,bad_rt
4188,11,2,1,37,car_pos,car_pos,car_neg,negation,positive,target,distractor,L,car_pos,Y,2/19/2019,11:08:00,0.075,NA,35,english,1,-2.5902671654458267,NA,NA,bad_rt
4189,11,2,1,38,banana_pos,banana_pos,banana_neg,negation,positive,target,distractor,L,banana_pos,Y,2/19/2019,11:08:00,0.044,NA,35,english,1,-3.123565645063876,NA,NA,bad_rt
4190,11,2,1,39,dog_pos,dog_neg,dog_pos,negation,positive,distractor,target,L,dog_neg,N,2/19/2019,11:08:00,0.051,NA,35,english,0,-2.9759296462578115,NA,NA,bad_rt
4191,11,2,1,40,teddybear_neg,teddybear_neg,teddybear_pos,negation,negative,target,distractor,L,teddybear_neg,Y,2/19/2019,11:08:00,0.021999999999997702,NA,35,english,1,-3.8167128256239256,NA,NA,bad_rt
4192,11,2,1,41,cup_neg,cup_pos,cup_neg,negation,negative,distractor,target,L,cup_pos,N,2/19/2019,11:08:00,0.051000000000000704,NA,35,english,0,-2.9759296462577973,NA,NA,bad_rt
