X1,subid,list,game.order,trial.num,word,leftpic,rightpic,game,trial.type,leftpic.type,rightpic.type,side.chosen,pic.chosen,response,date,timestamp,rt,age,agegroup,gender,english,response_numeric,log_rt,m_log_rt,sd_log_rt,reason_removed
22,111015_1,1,2,13,flower_pos,flower_pos,flower_neg,negation,positive,target,distractor,R,flower_neg,N,11/10/2015,13:10:00,0.275,4.97,4,F,100,0,-1.2909841813155656,0.34839901594443556,0.5220063149724423,bad_rt
25,111015_1,1,2,49,cup_pos,cup_pos,cup_neg,negation,positive,target,distractor,L,cup_pos,Y,11/10/2015,13:10:00,0.293,4.97,4,F,100,1,-1.2275826699650698,0.34839901594443556,0.5220063149724423,bad_rt
28,111015_1,1,2,2,apple_pos,apple_pos,apple_inhib,inhibition,control,target,distractor,L,apple_pos,Y,11/10/2015,13:10:00,0.246,4.97,4,F,100,1,-1.4024237430497744,0.34839901594443556,0.5220063149724423,bad_rt
79,111015_1,1,2,56,lamp_pos,lamp_pos,lamp_neg,negation,positive,target,distractor,L,lamp_pos,Y,11/10/2015,13:10:00,0.295,4.97,4,F,100,1,-1.2207799226423173,0.34839901594443556,0.5220063149724423,bad_rt
83,111015_1,1,2,41,bicycle_inhib,bicycle_pos,bicycle_inhib,inhibition,inhib,distractor,target,R,bicycle_inhib,Y,11/10/2015,13:10:00,0.291,4.97,4,F,100,1,-1.2344320118106447,0.34839901594443556,0.5220063149724423,bad_rt
119,111015_1,1,2,39,bicycle_pos,bicycle_inhib,bicycle_pos,inhibition,control,distractor,target,R,bicycle_pos,Y,11/10/2015,13:10:00,0.268,4.97,4,F,100,1,-1.3167682984712803,0.34839901594443556,0.5220063149724423,bad_rt
121,111015_1,1,2,14,dog_pos,dog_inhib,dog_pos,inhibition,control,distractor,target,L,dog_inhib,N,11/10/2015,13:10:00,0.291,4.97,4,F,100,0,-1.2344320118106447,0.34839901594443556,0.5220063149724423,bad_rt
663,111115_12,2,5,48,bicycle_inhib,bicycle_pos,bicycle_inhib,inhibition,inhib,distractor,target,R,bicycle_inhib,Y,11/11/2015,14:31:00,0.295,4.36,4,F,100,1,-1.2207799226423173,0.34839901594443556,0.5220063149724423,bad_rt
678,111115_12,2,5,52,lamp_control,lamp_control,lamp_foil,implicature,unambiguous,target,distractor,L,lamp_control,Y,11/11/2015,14:31:00,0.292,4.36,4,F,100,1,-1.2310014767138553,0.34839901594443556,0.5220063149724423,bad_rt
720,111115_12,2,5,52,banana_pos,banana_pos,banana_inhib,inhibition,control,target,distractor,L,banana_pos,Y,11/11/2015,14:31:00,0.295,4.36,4,F,100,1,-1.2207799226423173,0.34839901594443556,0.5220063149724423,bad_rt
741,111115_12,2,5,55,teddybear_pos,teddybear_pos,teddybear_inhib,inhibition,control,target,distractor,R,teddybear_inhib,N,11/11/2015,14:31:00,0.295,4.36,4,F,100,0,-1.2207799226423173,0.34839901594443556,0.5220063149724423,bad_rt
742,111115_12,2,5,23,cookie_pos,cookie_inhib,cookie_pos,inhibition,control,distractor,target,L,cookie_inhib,N,11/11/2015,14:31:00,0.294,4.36,4,F,100,0,-1.2241755116434554,0.34839901594443556,0.5220063149724423,bad_rt
756,111115_12,2,5,28,flower_pos,flower_pos,flower_inhib,inhibition,control,target,distractor,R,flower_inhib,N,11/11/2015,14:31:00,0.295,4.36,4,F,100,0,-1.2207799226423173,0.34839901594443556,0.5220063149724423,bad_rt
769,111115_12,2,5,17,lamp_pos,lamp_pos,lamp_inhib,inhibition,control,target,distractor,L,lamp_pos,Y,11/11/2015,14:31:00,0.292,4.36,4,F,100,1,-1.2310014767138553,0.34839901594443556,0.5220063149724423,bad_rt
783,111115_12,2,5,42,bird_pos,bird_neg,bird_pos,negation,positive,distractor,target,R,bird_pos,Y,11/11/2015,14:31:00,0.294,4.36,4,F,100,1,-1.2241755116434554,0.34839901594443556,0.5220063149724423,bad_rt
822,111115_14,2,6,50,flower_neg,flower_pos,flower_neg,negation,negative,distractor,target,R,flower_neg,Y,11/11/2015,15:22:00,7.471,4.6,4,F,100,1,2.0110288589936642,0.34839901594443556,0.5220063149724423,bad_rt
828,111115_14,2,6,72,car_pos,car_pos,car_inhib,inhibition,control,target,distractor,R,car_inhib,N,11/11/2015,15:22:00,0.292,4.6,4,F,100,0,-1.2310014767138553,0.34839901594443556,0.5220063149724423,bad_rt
845,111115_14,2,6,47,bicycle_pos,bicycle_pos,bicycle_neg,negation,positive,target,distractor,L,bicycle_pos,Y,11/11/2015,15:22:00,0.29,4.6,4,F,100,1,-1.2378743560016174,0.34839901594443556,0.5220063149724423,bad_rt
887,111115_14,2,6,57,cat_implic,cat_implic,cat_control,implicature,implicature,target,distractor,R,cat_control,N,11/11/2015,15:22:00,0.292,4.6,4,F,100,0,-1.2310014767138553,0.34839901594443556,0.5220063149724423,bad_rt
911,111115_14,2,6,55,teddybear_implic,teddybear_control,teddybear_implic,implicature,implicature,distractor,target,R,teddybear_implic,Y,11/11/2015,15:22:00,0.292,4.6,4,F,100,1,-1.2310014767138553,0.34839901594443556,0.5220063149724423,bad_rt
915,111115_14,2,6,10,bird_pos,bird_inhib,bird_pos,inhibition,control,distractor,target,R,bird_pos,Y,11/11/2015,15:22:00,0.292,4.6,4,F,100,1,-1.2310014767138553,0.34839901594443556,0.5220063149724423,bad_rt
919,111115_14,2,6,47,dog_control,dog_foil,dog_control,implicature,unambiguous,distractor,target,R,dog_control,Y,11/11/2015,15:22:00,0.292,4.6,4,F,100,1,-1.2310014767138553,0.34839901594443556,0.5220063149724423,bad_rt
938,111115_14,2,6,30,flower_pos,flower_pos,flower_inhib,inhibition,control,target,distractor,L,flower_pos,Y,11/11/2015,15:22:00,0.294,4.6,4,F,100,1,-1.2241755116434554,0.34839901594443556,0.5220063149724423,bad_rt
983,111115_14,2,6,55,teddybear_pos,teddybear_pos,teddybear_inhib,inhibition,control,target,distractor,R,teddybear_inhib,N,11/11/2015,15:22:00,0.294,4.6,4,F,100,0,-1.2241755116434554,0.34839901594443556,0.5220063149724423,bad_rt
994,111115_16,2,2,14,dog_control,dog_control,dog_foil,implicature,unambiguous,target,distractor,L,dog_control,Y,11/11/2015,16:04:00,7.734,4.23,4,M,100,1,2.045626193185105,0.34839901594443556,0.5220063149724423,bad_rt
1011,111115_16,2,2,18,flower_implic,flower_control,flower_implic,implicature,implicature,distractor,target,R,flower_implic,Y,11/11/2015,16:04:00,8.585,4.23,4,M,100,1,2.150016494349439,0.34839901594443556,0.5220063149724423,bad_rt
1027,111115_16,2,2,49,banana_pos,banana_inhib,banana_pos,inhibition,control,distractor,target,R,banana_pos,Y,11/11/2015,16:04:00,0.292,4.23,4,M,100,1,-1.2310014767138553,0.34839901594443556,0.5220063149724423,bad_rt
1062,111115_16,2,2,9,banana_implic,banana_control,banana_implic,implicature,implicature,distractor,target,R,banana_implic,Y,11/11/2015,16:04:00,8.436,4.23,4,M,100,1,2.132508262616528,0.34839901594443556,0.5220063149724423,bad_rt
1075,111115_16,2,2,24,cookie_pos,cookie_pos,cookie_inhib,inhibition,control,target,distractor,R,cookie_inhib,N,11/11/2015,16:04:00,0.207,4.23,4,M,100,0,-1.575036485716768,0.34839901594443556,0.5220063149724423,bad_rt
1111,111115_16,2,2,6,apple_control,apple_control,apple_foil,implicature,unambiguous,target,distractor,R,apple_foil,N,11/11/2015,16:04:00,0.294,4.23,4,M,100,0,-1.2241755116434554,0.34839901594443556,0.5220063149724423,bad_rt
1117,111115_16,2,2,1,cookie_neg,cookie_neg,cookie_pos,negation,negative,target,distractor,L,cookie_neg,Y,11/11/2015,16:04:00,7.607,4.23,4,M,100,1,2.029068876015164,0.34839901594443556,0.5220063149724423,bad_rt
1265,111115_17,1,2,1,dog_neg,dog_neg,dog_pos,negation,negative,target,distractor,L,dog_neg,Y,11/11/2015,16:20:00,8.365,5.59,5,F,95,1,2.1240563344387873,0.34839901594443556,0.5220063149724423,bad_rt
1659,111115_3,1,2,1,apple_pos,apple_pos,apple_inhib,inhibition,control,target,distractor,L,apple_pos,Y,11/11/2015,11:32:00,0.283,4.65,4,F,100,1,-1.2623083813388996,0.34839901594443556,0.5220063149724423,bad_rt
1664,111115_3,1,2,60,cookie_inhib,cookie_inhib,cookie_pos,inhibition,inhib,target,distractor,R,cookie_pos,N,11/11/2015,11:32:00,6.879,4.65,4,F,100,0,1.928473292543877,0.34839901594443556,0.5220063149724423,bad_rt
1929,111115_5,1,2,11,flower_implic,flower_control,flower_implic,implicature,implicature,distractor,target,R,flower_implic,Y,11/11/2015,12:04:00,9.783,4.72,4,F,100,1,2.2806461854752915,0.34839901594443556,0.5220063149724423,bad_rt
1930,111115_5,1,2,24,car_neg,car_pos,car_neg,negation,negative,distractor,target,R,car_neg,Y,11/11/2015,12:04:00,6.845,4.72,4,F,100,1,1.9235184587404122,0.34839901594443556,0.5220063149724423,bad_rt
1956,111115_5,1,2,3,teddybear_pos,teddybear_neg,teddybear_pos,negation,positive,distractor,target,L,teddybear_neg,N,11/11/2015,12:04:00,7.033,4.72,4,F,100,0,1.9506133573258813,0.34839901594443556,0.5220063149724423,bad_rt
2021,111115_5,1,2,6,teddybear_control,teddybear_control,teddybear_foil,implicature,unambiguous,target,distractor,L,teddybear_control,Y,11/11/2015,12:04:00,6.936,4.72,4,F,100,1,1.9367252394782408,0.34839901594443556,0.5220063149724423,bad_rt
2058,111115_5,1,2,52,banana_control,banana_foil,banana_control,implicature,unambiguous,distractor,target,R,banana_control,Y,11/11/2015,12:04:00,7.351,4.72,4,F,100,1,1.9948363583919506,0.34839901594443556,0.5220063149724423,bad_rt
2064,111115_5,1,2,1,banana_implic,banana_control,banana_implic,implicature,implicature,distractor,target,R,banana_implic,Y,11/11/2015,12:04:00,8.234,4.72,4,F,100,1,2.1082719233477127,0.34839901594443556,0.5220063149724423,bad_rt
2848,11115_1,1,5,43,bicycle_pos,bicycle_neg,bicycle_pos,negation,positive,distractor,target,R,bicycle_pos,Y,11/1/2015,15:27:00,0.234,5.62,5,F,95,1,-1.4524341636244356,0.34839901594443556,0.5220063149724423,bad_rt
3180,111215_1,1,3,68,bird_pos,bird_pos,bird_inhib,inhibition,control,target,distractor,L,bird_pos,Y,11/12/2015,14:46:00,9.758,4.66,4,F,100,1,2.2780874613936453,0.34839901594443556,0.5220063149724423,bad_rt
3193,111215_1,1,3,40,car_pos,car_neg,car_pos,negation,positive,distractor,target,L,car_neg,N,11/12/2015,14:46:00,0.292,4.66,4,F,100,0,-1.2310014767138553,0.34839901594443556,0.5220063149724423,bad_rt
3194,111215_1,1,3,66,lamp_pos,lamp_pos,lamp_inhib,inhibition,control,target,distractor,R,lamp_inhib,N,11/12/2015,14:46:00,0.291,4.66,4,F,100,0,-1.2344320118106447,0.34839901594443556,0.5220063149724423,bad_rt
3200,111215_1,1,3,23,teddybear_pos,teddybear_pos,teddybear_inhib,inhibition,control,target,distractor,L,teddybear_pos,Y,11/12/2015,14:46:00,0.294,4.66,4,F,100,1,-1.2241755116434554,0.34839901594443556,0.5220063149724423,bad_rt
3202,111215_1,1,3,17,dog_pos,dog_inhib,dog_pos,inhibition,control,distractor,target,L,dog_inhib,N,11/12/2015,14:46:00,0.292,4.66,4,F,100,0,-1.2310014767138553,0.34839901594443556,0.5220063149724423,bad_rt
3217,111215_1,1,3,48,apple_pos,apple_neg,apple_pos,negation,positive,distractor,target,L,apple_neg,N,11/12/2015,14:46:00,0.292,4.66,4,F,100,0,-1.2310014767138553,0.34839901594443556,0.5220063149724423,bad_rt
3228,111215_1,1,3,51,flower_pos,flower_inhib,flower_pos,inhibition,control,distractor,target,R,flower_pos,Y,11/12/2015,14:46:00,0.294,4.66,4,F,100,1,-1.2241755116434554,0.34839901594443556,0.5220063149724423,bad_rt
3237,111215_1,1,3,13,car_inhib,car_pos,car_inhib,inhibition,inhib,distractor,target,R,car_inhib,Y,11/12/2015,14:46:00,0.292,4.66,4,F,100,1,-1.2310014767138553,0.34839901594443556,0.5220063149724423,bad_rt
3248,111215_1,1,3,9,apple_pos,apple_pos,apple_neg,negation,positive,target,distractor,L,apple_pos,Y,11/12/2015,14:46:00,0.293,4.66,4,F,100,1,-1.2275826699650698,0.34839901594443556,0.5220063149724423,bad_rt
3249,111215_1,1,3,5,apple_pos,apple_pos,apple_inhib,inhibition,control,target,distractor,L,apple_pos,Y,11/12/2015,14:46:00,0.291,4.66,4,F,100,1,-1.2344320118106447,0.34839901594443556,0.5220063149724423,bad_rt
3259,111215_1,1,3,33,banana_inhib,banana_pos,banana_inhib,inhibition,inhib,distractor,target,L,banana_pos,N,11/12/2015,14:46:00,0.294,4.66,4,F,100,0,-1.2241755116434554,0.34839901594443556,0.5220063149724423,bad_rt
3260,111215_1,1,3,43,bicycle_pos,bicycle_neg,bicycle_pos,negation,positive,distractor,target,R,bicycle_pos,Y,11/12/2015,14:46:00,7.207,4.66,4,F,100,1,1.975052775942304,0.34839901594443556,0.5220063149724423,bad_rt
3262,111215_1,1,3,2,apple_pos,apple_inhib,apple_pos,inhibition,control,distractor,target,L,apple_inhib,N,11/12/2015,14:46:00,0.295,4.66,4,F,100,0,-1.2207799226423173,0.34839901594443556,0.5220063149724423,bad_rt
3285,111215_1,1,3,23,banana_neg,banana_pos,banana_neg,negation,negative,distractor,target,L,banana_pos,N,11/12/2015,14:46:00,6.856,4.66,4,F,100,0,1.9251241812954787,0.34839901594443556,0.5220063149724423,bad_rt
3303,111215_1,1,3,54,cookie_pos,cookie_inhib,cookie_pos,inhibition,control,distractor,target,R,cookie_pos,Y,11/12/2015,14:46:00,8.002,4.66,4,F,100,1,2.0796915104350435,0.34839901594443556,0.5220063149724423,bad_rt
3352,111215_4,2,3,42,bird_pos,bird_pos,bird_neg,negation,positive,target,distractor,R,bird_neg,N,11/12/2015,15:24:00,0.225,4.24,4,M,100,0,-1.491654876777717,0.34839901594443556,0.5220063149724423,bad_rt
3377,111215_5,1,5,36,dog_control,dog_foil,dog_control,implicature,unambiguous,distractor,target,R,dog_control,Y,11/12/2015,15:34:00,0.24,6.04,6,F,100,1,-1.4271163556401458,0.34839901594443556,0.5220063149724423,bad_rt
3389,111215_5,1,5,5,apple_pos,apple_pos,apple_inhib,inhibition,control,target,distractor,L,apple_pos,Y,11/12/2015,15:34:00,0.282,6.04,6,F,100,1,-1.2658482080440236,0.34839901594443556,0.5220063149724423,bad_rt
3394,111215_5,1,5,6,apple_inhib,apple_inhib,apple_pos,inhibition,inhib,target,distractor,L,apple_inhib,Y,11/12/2015,15:34:00,0.219,6.04,6,F,100,1,-1.5186835491656363,0.34839901594443556,0.5220063149724423,bad_rt
3453,111215_5,1,5,62,lamp_pos,lamp_pos,lamp_inhib,inhibition,control,target,distractor,R,lamp_inhib,N,11/12/2015,15:34:00,0.201,6.04,6,F,100,0,-1.6044503709230613,0.34839901594443556,0.5220063149724423,bad_rt
3499,111215_5,1,5,74,cup_pos,cup_pos,cup_inhib,inhibition,control,target,distractor,R,cup_inhib,N,11/12/2015,15:34:00,0.223,6.04,6,F,100,0,-1.5005835075220182,0.34839901594443556,0.5220063149724423,bad_rt
3525,111215_5,1,5,60,cat_control,cat_control,cat_foil,implicature,unambiguous,target,distractor,L,cat_control,Y,11/12/2015,15:34:00,0.294,6.04,6,F,100,1,-1.2241755116434554,0.34839901594443556,0.5220063149724423,bad_rt
3532,111215_5,1,5,37,teddybear_pos,teddybear_neg,teddybear_pos,negation,positive,distractor,target,R,teddybear_pos,Y,11/12/2015,15:34:00,7.007,6.04,6,F,100,1,1.9469096493883968,0.34839901594443556,0.5220063149724423,bad_rt
4030,111315_2,2,4,3,cat_pos,cat_neg,cat_pos,negation,positive,distractor,target,L,cat_neg,N,11/13/2015,11:49:00,0.291,6.15,6,M,95,0,-1.2344320118106447,0.34839901594443556,0.5220063149724423,bad_rt
4062,111315_2,2,4,13,apple_neg,apple_pos,apple_neg,negation,negative,distractor,target,L,apple_pos,N,11/13/2015,11:49:00,0.262999999999998,6.15,6,M,95,0,-1.33560124680438,0.34839901594443556,0.5220063149724423,bad_rt
4249,111315_5,1,6,1,banana_control,banana_foil,banana_control,implicature,unambiguous,distractor,target,R,banana_control,Y,11/13/2015,12:29:00,7.204,4.66,4,F,75,1,1.9746364273137096,0.34839901594443556,0.5220063149724423,bad_rt
4254,111315_5,1,6,40,lamp_control,lamp_control,lamp_foil,implicature,unambiguous,target,distractor,L,lamp_control,Y,11/13/2015,12:29:00,8.95,4.66,4,F,75,1,2.191653532286764,0.34839901594443556,0.5220063149724423,bad_rt
4279,111315_5,1,6,8,bicycle_implic,bicycle_control,bicycle_implic,implicature,implicature,distractor,target,L,bicycle_control,N,11/13/2015,12:29:00,0.252,4.66,4,F,75,0,-1.3783261914707137,0.34839901594443556,0.5220063149724423,bad_rt
4364,111315_5,1,6,16,cat_neg,cat_neg,cat_pos,negation,negative,target,distractor,L,cat_neg,Y,11/13/2015,12:29:00,8.702,4.66,4,F,75,1,2.1635528842984884,0.34839901594443556,0.5220063149724423,bad_rt
4407,111315_5,1,6,22,dog_neg,dog_neg,dog_pos,negation,negative,target,distractor,L,dog_neg,Y,11/13/2015,12:29:00,7.873,4.66,4,F,75,1,2.06343918420233,0.34839901594443556,0.5220063149724423,bad_rt
4597,111315_7,1,2,46,cup_control,cup_foil,cup_control,implicature,unambiguous,distractor,target,R,cup_control,Y,11/13/2015,13:34:00,7.142,5.62,5,F,75,1,1.9659928491722567,0.34839901594443556,0.5220063149724423,bad_rt
4874,111515_1,1,6,5,apple_pos,apple_pos,apple_inhib,inhibition,control,target,distractor,R,apple_inhib,N,11/15/2015,12:16:00,0.226,5.32,5,F,100,0,-1.487220279709851,0.34839901594443556,0.5220063149724423,bad_rt
5109,111515_2,2,4,32,flower_pos,flower_pos,flower_inhib,inhibition,control,target,distractor,L,flower_pos,Y,11/15/2015,12:38:00,0.292,4.64,4,F,75,1,-1.2310014767138553,0.34839901594443556,0.5220063149724423,bad_rt
5120,111515_2,2,4,26,flower_neg,flower_pos,flower_neg,negation,negative,distractor,target,L,flower_pos,N,11/15/2015,12:38:00,0.223000000000001,4.64,4,F,75,0,-1.5005835075220137,0.34839901594443556,0.5220063149724423,bad_rt
5150,111515_2,2,4,46,bicycle_inhib,bicycle_inhib,bicycle_pos,inhibition,inhib,target,distractor,L,bicycle_inhib,Y,11/15/2015,12:38:00,0.211,4.64,4,F,75,1,-1.5558971455060706,0.34839901594443556,0.5220063149724423,bad_rt
5186,111515_2,2,4,52,lamp_control,lamp_control,lamp_foil,implicature,unambiguous,target,distractor,R,lamp_foil,N,11/15/2015,12:38:00,7.548,4.64,4,F,75,0,2.0212826275063036,0.34839901594443556,0.5220063149724423,bad_rt
5217,111515_2,2,4,34,apple_implic,apple_implic,apple_control,implicature,implicature,target,distractor,L,apple_implic,Y,11/15/2015,12:38:00,8.036,4.64,4,F,75,1,2.083931446952688,0.34839901594443556,0.5220063149724423,bad_rt
5258,111515_2,2,4,8,dog_pos,dog_neg,dog_pos,negation,positive,distractor,target,L,dog_neg,N,11/15/2015,12:38:00,0.295,4.64,4,F,75,0,-1.2207799226423173,0.34839901594443556,0.5220063149724423,bad_rt
5296,111515_3,1,1,31,banana_inhib,banana_inhib,banana_pos,inhibition,inhib,target,distractor,R,banana_pos,N,11/15/2015,12:58:00,0.278,5.95,5,F,75,0,-1.2801341652915,0.34839901594443556,0.5220063149724423,bad_rt
5303,111515_3,1,1,27,banana_pos,banana_pos,banana_inhib,inhibition,control,target,distractor,L,banana_pos,Y,11/15/2015,12:58:00,0.242,5.95,5,F,75,1,-1.4188175528254507,0.34839901594443556,0.5220063149724423,bad_rt
5311,111515_3,1,1,21,teddybear_pos,teddybear_pos,teddybear_inhib,inhibition,control,target,distractor,R,teddybear_inhib,N,11/15/2015,12:58:00,0.293,5.95,5,F,75,0,-1.2275826699650698,0.34839901594443556,0.5220063149724423,bad_rt
5319,111515_3,1,1,14,dog_pos,dog_pos,dog_inhib,inhibition,control,target,distractor,L,dog_pos,Y,11/15/2015,12:58:00,0.227,5.95,5,F,75,1,-1.4828052615007343,0.34839901594443556,0.5220063149724423,bad_rt
5380,111515_3,1,1,34,bicycle_pos,bicycle_inhib,bicycle_pos,inhibition,control,distractor,target,R,bicycle_pos,Y,11/15/2015,12:58:00,6.801,5.95,5,F,75,1,1.9170696601935016,0.34839901594443556,0.5220063149724423,bad_rt
5388,111515_3,1,1,57,bicycle_pos,bicycle_pos,bicycle_neg,negation,positive,target,distractor,L,bicycle_pos,Y,11/15/2015,12:58:00,9.621,5.95,5,F,75,1,2.2639482093791274,0.34839901594443556,0.5220063149724423,bad_rt
5391,111515_3,1,1,33,bicycle_pos,bicycle_pos,bicycle_inhib,inhibition,control,target,distractor,R,bicycle_inhib,N,11/15/2015,12:58:00,0.201,5.95,5,F,75,0,-1.6044503709230613,0.34839901594443556,0.5220063149724423,bad_rt
5558,111515_4,2,5,2,flower_neg,flower_pos,flower_neg,negation,negative,distractor,target,R,flower_neg,Y,11/15/2015,12:59:00,6.952,4.41,4,F,100,1,1.9390293879630909,0.34839901594443556,0.5220063149724423,bad_rt
5591,111515_4,2,5,26,lamp_control,lamp_foil,lamp_control,implicature,unambiguous,distractor,target,R,lamp_control,Y,11/15/2015,12:59:00,7.77,4.41,4,F,100,1,2.050270164379556,0.34839901594443556,0.5220063149724423,bad_rt
5649,111515_4,2,5,41,lamp_control,lamp_control,lamp_foil,implicature,unambiguous,target,distractor,L,lamp_control,Y,11/15/2015,12:59:00,0.295,4.41,4,F,100,1,-1.2207799226423173,0.34839901594443556,0.5220063149724423,bad_rt
5815,111515_6,2,1,40,teddybear_pos,teddybear_pos,teddybear_neg,negation,positive,target,distractor,R,teddybear_neg,N,11/15/2015,15:34:00,0.294,5.38,5,F,95,0,-1.2241755116434554,0.34839901594443556,0.5220063149724423,bad_rt
6269,111715_1,1,4,54,dog_implic,dog_control,dog_implic,implicature,implicature,distractor,target,R,dog_implic,Y,11/17/2015,13:26:00,9.472,4.49,4,M,100,1,2.24834007814165,0.34839901594443556,0.5220063149724423,bad_rt
6291,111715_1,1,4,52,banana_implic,banana_implic,banana_control,implicature,implicature,target,distractor,R,banana_control,N,11/17/2015,13:26:00,0.294,4.49,4,M,100,0,-1.2241755116434554,0.34839901594443556,0.5220063149724423,bad_rt
6296,111715_1,1,4,17,cat_implic,cat_implic,cat_control,implicature,implicature,target,distractor,R,cat_control,N,11/17/2015,13:26:00,8.015,4.49,4,M,100,0,2.081314786061516,0.34839901594443556,0.5220063149724423,bad_rt
6308,111715_1,1,4,8,bicycle_implic,bicycle_control,bicycle_implic,implicature,implicature,distractor,target,L,bicycle_control,N,11/17/2015,13:26:00,7.561,4.49,4,M,100,0,2.023003456576133,0.34839901594443556,0.5220063149724423,bad_rt
6312,111715_1,1,4,13,bicycle_implic,bicycle_implic,bicycle_control,implicature,implicature,target,distractor,L,bicycle_implic,Y,11/17/2015,13:26:00,9.666,4.49,4,M,100,1,2.268614573422892,0.34839901594443556,0.5220063149724423,bad_rt
6313,111715_1,1,4,12,bird_implic,bird_implic,bird_control,implicature,implicature,target,distractor,L,bird_implic,Y,11/17/2015,13:26:00,6.855,4.49,4,M,100,1,1.9249783130142777,0.34839901594443556,0.5220063149724423,bad_rt
6352,111715_2,2,1,1,cat_implic,cat_control,cat_implic,implicature,implicature,distractor,target,R,cat_implic,Y,11/17/2015,14:02:00,7.428,4.39,4,M,95,1,2.0052566434904593,0.34839901594443556,0.5220063149724423,bad_rt
6660,111815_2,2,6,31,cookie_pos,cookie_neg,cookie_pos,negation,positive,distractor,target,L,cookie_neg,N,11/18/2015,13:58:00,0.258,4.99,4,M,100,0,-1.3547956940605197,0.34839901594443556,0.5220063149724423,bad_rt
7686,112015_1,1,2,18,cookie_control,cookie_control,cookie_foil,implicature,unambiguous,target,distractor,R,cookie_foil,N,11/20/2015,10:59:00,0.291,4.79,4,F,100,0,-1.2344320118106447,0.34839901594443556,0.5220063149724423,bad_rt
7729,112015_1,1,2,47,flower_pos,flower_pos,flower_inhib,inhibition,control,target,distractor,L,flower_pos,Y,11/20/2015,10:59:00,6.88,4.79,4,F,100,1,1.9286186519452522,0.34839901594443556,0.5220063149724423,bad_rt
7808,112015_1,1,2,41,cat_pos,cat_pos,cat_inhib,inhibition,control,target,distractor,R,cat_inhib,N,11/20/2015,10:59:00,0.294,4.79,4,F,100,0,-1.2241755116434554,0.34839901594443556,0.5220063149724423,bad_rt
7878,112015_11,1,4,14,dog_pos,dog_pos,dog_inhib,inhibition,control,target,distractor,L,dog_pos,Y,11/20/2015,15:38:00,0.294,5.32,5,F,100,1,-1.2241755116434554,0.34839901594443556,0.5220063149724423,bad_rt
7889,112015_11,1,4,43,flower_implic,flower_control,flower_implic,implicature,implicature,distractor,target,L,flower_control,N,11/20/2015,15:38:00,0.295,5.32,5,F,100,0,-1.2207799226423173,0.34839901594443556,0.5220063149724423,bad_rt
7924,112015_11,1,4,18,dog_pos,dog_inhib,dog_pos,inhibition,control,distractor,target,L,dog_inhib,N,11/20/2015,15:38:00,0.293,5.32,5,F,100,0,-1.2275826699650698,0.34839901594443556,0.5220063149724423,bad_rt
7928,112015_11,1,4,50,car_control,car_control,car_foil,implicature,unambiguous,target,distractor,L,car_control,Y,11/20/2015,15:38:00,0.293,5.32,5,F,100,1,-1.2275826699650698,0.34839901594443556,0.5220063149724423,bad_rt
7934,112015_11,1,4,19,bird_neg,bird_pos,bird_neg,negation,negative,distractor,target,L,bird_pos,N,11/20/2015,15:38:00,9.321,5.32,5,F,100,0,2.23226991907902,0.34839901594443556,0.5220063149724423,bad_rt
7951,112015_11,1,4,22,dog_pos,dog_pos,dog_neg,negation,positive,target,distractor,L,dog_pos,Y,11/20/2015,15:38:00,0.295,5.32,5,F,100,1,-1.2207799226423173,0.34839901594443556,0.5220063149724423,bad_rt
7966,112015_11,1,4,58,cup_control,cup_foil,cup_control,implicature,unambiguous,distractor,target,L,cup_foil,N,11/20/2015,15:38:00,0.292,5.32,5,F,100,0,-1.2310014767138553,0.34839901594443556,0.5220063149724423,bad_rt
7973,112015_11,1,4,36,dog_control,dog_control,dog_foil,implicature,unambiguous,target,distractor,L,dog_control,Y,11/20/2015,15:38:00,0.295,5.32,5,F,100,1,-1.2207799226423173,0.34839901594443556,0.5220063149724423,bad_rt
7976,112015_11,1,4,2,apple_pos,apple_inhib,apple_pos,inhibition,control,distractor,target,L,apple_inhib,N,11/20/2015,15:38:00,0.294,5.32,5,F,100,0,-1.2241755116434554,0.34839901594443556,0.5220063149724423,bad_rt
8017,112015_11,1,4,6,apple_pos,apple_pos,apple_inhib,inhibition,control,target,distractor,R,apple_inhib,N,11/20/2015,15:38:00,0.291,5.32,5,F,100,0,-1.2344320118106447,0.34839901594443556,0.5220063149724423,bad_rt
8108,112015_3,1,5,40,bicycle_inhib,bicycle_pos,bicycle_inhib,inhibition,inhib,distractor,target,R,bicycle_inhib,Y,11/20/2015,12:26:00,0.294,6.6,6,F,100,1,-1.2241755116434554,0.34839901594443556,0.5220063149724423,bad_rt
8149,112015_3,1,5,37,bicycle_pos,bicycle_pos,bicycle_inhib,inhibition,control,target,distractor,L,bicycle_pos,Y,11/20/2015,12:26:00,0.292,6.6,6,F,100,1,-1.2310014767138553,0.34839901594443556,0.5220063149724423,bad_rt
8232,112015_4,2,4,55,teddybear_control,teddybear_foil,teddybear_control,implicature,unambiguous,distractor,target,L,teddybear_foil,N,11/20/2015,12:34:00,0.291,4.51,4,F,100,0,-1.2344320118106447,0.34839901594443556,0.5220063149724423,bad_rt
8279,112015_4,2,4,41,lamp_control,lamp_foil,lamp_control,implicature,unambiguous,distractor,target,R,lamp_control,Y,11/20/2015,12:34:00,0.295,4.51,4,F,100,1,-1.2207799226423173,0.34839901594443556,0.5220063149724423,bad_rt
8288,112015_4,2,4,5,bird_implic,bird_control,bird_implic,implicature,implicature,distractor,target,R,bird_implic,Y,11/20/2015,12:34:00,0.294,4.51,4,F,100,1,-1.2241755116434554,0.34839901594443556,0.5220063149724423,bad_rt
8347,112015_7,1,3,22,car_control,car_control,car_foil,implicature,unambiguous,target,distractor,R,car_foil,N,11/20/2015,14:18:00,0.293,6,6,M,95,0,-1.2275826699650698,0.34839901594443556,0.5220063149724423,bad_rt
8546,112015_9,1,5,4,apple_pos,apple_inhib,apple_pos,inhibition,control,distractor,target,L,apple_inhib,N,11/20/2015,14:44:00,0.22,6.27,6,M,100,0,-1.5141277326297755,0.34839901594443556,0.5220063149724423,bad_rt
8571,112015_9,1,5,33,car_implic,car_implic,car_control,implicature,implicature,target,distractor,L,car_implic,Y,11/20/2015,14:44:00,6.802,6.27,6,M,100,1,1.9172166865850035,0.34839901594443556,0.5220063149724423,bad_rt
8756,112415_1,1,6,76,cup_pos,cup_inhib,cup_pos,inhibition,control,distractor,target,L,cup_inhib,N,11/24/2015,12:43:00,0.268,4.9,4,M,100,0,-1.3167682984712803,0.34839901594443556,0.5220063149724423,bad_rt
9125,112415_5,1,4,43,cat_pos,cat_inhib,cat_pos,inhibition,control,distractor,target,R,cat_pos,Y,11/24/2015,14:40:00,0.27,6.08,6,M,100,1,-1.3093333199837622,0.34839901594443556,0.5220063149724423,bad_rt
9216,112415_5,1,4,69,bird_pos,bird_pos,bird_inhib,inhibition,control,target,distractor,L,bird_pos,Y,11/24/2015,14:40:00,0.226,6.08,6,M,100,1,-1.487220279709851,0.34839901594443556,0.5220063149724423,bad_rt
9743,112715_1,1,4,9,lamp_implic,lamp_control,lamp_implic,implicature,implicature,distractor,target,R,lamp_implic,Y,11/27/2015,11:46:00,8.757,6.08,6,M,100,1,2.1698533805400873,0.34839901594443556,0.5220063149724423,bad_rt
9784,112715_1,1,4,40,lamp_implic,lamp_control,lamp_implic,implicature,implicature,distractor,target,L,lamp_control,N,11/27/2015,11:46:00,0.295,6.08,6,M,100,0,-1.2207799226423173,0.34839901594443556,0.5220063149724423,bad_rt
10021,112715_3,1,5,7,dog_control,dog_foil,dog_control,implicature,unambiguous,distractor,target,R,dog_control,Y,11/27/2015,12:22:00,7.878,4.61,4,M,100,1,2.064074064548714,0.34839901594443556,0.5220063149724423,bad_rt
10073,112715_3,1,5,10,car_control,car_foil,car_control,implicature,unambiguous,distractor,target,L,car_foil,N,11/27/2015,12:22:00,0.232,4.61,4,M,100,0,-1.4610179073158271,0.34839901594443556,0.5220063149724423,bad_rt
10219,112715_6,2,6,7,banana_pos,banana_pos,banana_neg,negation,positive,target,distractor,L,banana_pos,Y,11/27/2015,12:50:00,0.295,4.42,4,M,95,1,-1.2207799226423173,0.34839901594443556,0.5220063149724423,bad_rt
10227,112715_6,2,6,15,banana_neg,banana_pos,banana_neg,negation,negative,distractor,target,R,banana_neg,Y,11/27/2015,12:50:00,7.789,4.42,4,M,95,1,2.0527124819378115,0.34839901594443556,0.5220063149724423,bad_rt
10235,112715_6,2,6,36,car_pos,car_pos,car_neg,negation,positive,target,distractor,L,car_pos,Y,11/27/2015,12:50:00,0.293,4.42,4,M,95,1,-1.2275826699650698,0.34839901594443556,0.5220063149724423,bad_rt
10244,112715_6,2,6,31,cookie_pos,cookie_pos,cookie_neg,negation,positive,target,distractor,R,cookie_neg,N,11/27/2015,12:50:00,0.294,4.42,4,M,95,0,-1.2241755116434554,0.34839901594443556,0.5220063149724423,bad_rt
10278,112915_1,1,5,54,dog_implic,dog_control,dog_implic,implicature,implicature,distractor,target,R,dog_implic,Y,12/1/2015,13:20:00,0.258,4.78,4,F,75,1,-1.3547956940605197,0.34839901594443556,0.5220063149724423,bad_rt
10353,112915_1,1,5,39,cat_pos,cat_pos,cat_neg,negation,positive,target,distractor,L,cat_pos,Y,12/1/2015,13:20:00,0.292,4.78,4,F,75,1,-1.2310014767138553,0.34839901594443556,0.5220063149724423,bad_rt
10361,112915_1,1,5,56,bird_control,bird_control,bird_foil,implicature,unambiguous,target,distractor,R,bird_foil,N,12/1/2015,13:20:00,0.266,4.78,4,F,75,0,-1.324258970200438,0.34839901594443556,0.5220063149724423,bad_rt
10624,11315_3,1,5,75,cup_pos,cup_inhib,cup_pos,inhibition,control,distractor,target,R,cup_pos,Y,11/3/2015,13:45:00,0.208,5.58,5,M,95,1,-1.5702171992808192,0.34839901594443556,0.5220063149724423,bad_rt
10655,11315_3,1,5,66,bird_pos,bird_inhib,bird_pos,inhibition,control,distractor,target,L,bird_inhib,N,11/3/2015,13:45:00,0.243,5.58,5,M,95,0,-1.4146938356415886,0.34839901594443556,0.5220063149724423,bad_rt
10720,11315_3,1,5,52,banana_control,banana_control,banana_foil,implicature,unambiguous,target,distractor,R,banana_foil,N,11/3/2015,13:45:00,6.92,5.58,5,M,95,0,1.9344157696295783,0.34839901594443556,0.5220063149724423,bad_rt
10723,11315_3,1,5,55,apple_implic,apple_implic,apple_control,implicature,implicature,target,distractor,L,apple_implic,Y,11/3/2015,13:45:00,7.738,5.58,5,M,95,1,2.0461432562783215,0.34839901594443556,0.5220063149724423,bad_rt
10733,11315_3,1,5,61,lamp_pos,lamp_inhib,lamp_pos,inhibition,control,distractor,target,R,lamp_pos,Y,11/3/2015,13:45:00,0.237,5.58,5,M,95,1,-1.439695137847006,0.34839901594443556,0.5220063149724423,bad_rt
11006,11415_1,1,4,19,dog_inhib,dog_inhib,dog_pos,inhibition,inhib,target,distractor,L,dog_inhib,Y,11/4/2015,13:29:00,0.294,5.06,5,F,100,1,-1.2241755116434554,0.34839901594443556,0.5220063149724423,bad_rt
11009,11415_1,1,4,32,cup_control,cup_control,cup_foil,implicature,unambiguous,target,distractor,L,cup_control,Y,11/4/2015,13:29:00,0.289,5.06,5,F,100,1,-1.241328590869705,0.34839901594443556,0.5220063149724423,bad_rt
11031,11415_1,1,4,44,cat_pos,cat_inhib,cat_pos,inhibition,control,distractor,target,R,cat_pos,Y,11/4/2015,13:29:00,0.295,5.06,5,F,100,1,-1.2207799226423173,0.34839901594443556,0.5220063149724423,bad_rt
11140,11415_1,1,4,1,dog_neg,dog_neg,dog_pos,negation,negative,target,distractor,L,dog_neg,Y,11/4/2015,13:29:00,8.324,5.06,5,F,100,1,2.119142908531388,0.34839901594443556,0.5220063149724423,bad_rt
11471,11415_4,2,4,58,teddybear_pos,teddybear_neg,teddybear_pos,negation,positive,distractor,target,R,teddybear_pos,Y,11/4/2015,14:45:00,0.211,5.63,5,M,100,1,-1.5558971455060706,0.34839901594443556,0.5220063149724423,bad_rt
11584,11515_1,1,2,46,flower_pos,flower_pos,flower_inhib,inhibition,control,target,distractor,R,flower_inhib,N,11/5/2015,13:40:00,0.291,6.53,6,M,95,0,-1.2344320118106447,0.34839901594443556,0.5220063149724423,bad_rt
11887,11615_2,2,6,57,teddybear_pos,teddybear_inhib,teddybear_pos,inhibition,control,distractor,target,L,teddybear_inhib,N,11/6/2015,16:03:00,0.217,4.06,4,F,100,0,-1.5278579254416775,0.34839901594443556,0.5220063149724423,bad_rt
11890,11615_2,2,6,56,teddybear_pos,teddybear_pos,teddybear_inhib,inhibition,control,target,distractor,R,teddybear_inhib,N,11/6/2015,16:03:00,0.219,4.06,4,F,100,0,-1.5186835491656363,0.34839901594443556,0.5220063149724423,bad_rt
11898,11615_2,2,6,52,apple_pos,apple_neg,apple_pos,negation,positive,distractor,target,L,apple_neg,N,11/6/2015,16:03:00,0.294,4.06,4,F,100,0,-1.2241755116434554,0.34839901594443556,0.5220063149724423,bad_rt
11915,11615_2,2,6,23,bird_implic,bird_control,bird_implic,implicature,implicature,distractor,target,L,bird_control,N,11/6/2015,16:03:00,0.294,4.06,4,F,100,0,-1.2241755116434554,0.34839901594443556,0.5220063149724423,bad_rt
11917,11615_2,2,6,64,dog_pos,dog_pos,dog_inhib,inhibition,control,target,distractor,R,dog_inhib,N,11/6/2015,16:03:00,0.295,4.06,4,F,100,0,-1.2207799226423173,0.34839901594443556,0.5220063149724423,bad_rt
11936,11615_2,2,6,43,bicycle_pos,bicycle_pos,bicycle_inhib,inhibition,control,target,distractor,L,bicycle_pos,Y,11/6/2015,16:03:00,0.292,4.06,4,F,100,1,-1.2310014767138553,0.34839901594443556,0.5220063149724423,bad_rt
11938,11615_2,2,6,45,bicycle_pos,bicycle_inhib,bicycle_pos,inhibition,control,distractor,target,R,bicycle_pos,Y,11/6/2015,16:03:00,0.292,4.06,4,F,100,1,-1.2310014767138553,0.34839901594443556,0.5220063149724423,bad_rt
11944,11615_2,2,6,52,banana_pos,banana_pos,banana_inhib,inhibition,control,target,distractor,L,banana_pos,Y,11/6/2015,16:03:00,0.295,4.06,4,F,100,1,-1.2207799226423173,0.34839901594443556,0.5220063149724423,bad_rt
11946,11615_2,2,6,30,bicycle_implic,bicycle_control,bicycle_implic,implicature,implicature,distractor,target,R,bicycle_implic,Y,11/6/2015,16:03:00,0.288,4.06,4,F,100,1,-1.2447947988461912,0.34839901594443556,0.5220063149724423,bad_rt
11952,11615_2,2,6,55,cup_pos,cup_pos,cup_neg,negation,positive,target,distractor,L,cup_pos,Y,11/6/2015,16:03:00,0.247,4.06,4,F,100,1,-1.3983669423541598,0.34839901594443556,0.5220063149724423,bad_rt
11962,11615_2,2,6,48,bicycle_control,bicycle_control,bicycle_foil,implicature,unambiguous,target,distractor,R,bicycle_foil,N,11/6/2015,16:03:00,0.291,4.06,4,F,100,0,-1.2344320118106447,0.34839901594443556,0.5220063149724423,bad_rt
11963,11615_2,2,6,70,car_pos,car_pos,car_inhib,inhibition,control,target,distractor,L,car_pos,Y,11/6/2015,16:03:00,0.2,4.06,4,F,100,1,-1.6094379124341003,0.34839901594443556,0.5220063149724423,bad_rt
11967,11615_2,2,6,74,car_inhib,car_pos,car_inhib,inhibition,inhib,distractor,target,L,car_pos,N,11/6/2015,16:03:00,0.234,4.06,4,F,100,0,-1.4524341636244356,0.34839901594443556,0.5220063149724423,bad_rt
11992,11615_2,2,6,38,cup_control,cup_foil,cup_control,implicature,unambiguous,distractor,target,L,cup_foil,N,11/6/2015,16:03:00,0.291,4.06,4,F,100,0,-1.2344320118106447,0.34839901594443556,0.5220063149724423,bad_rt
11996,11615_2,2,6,42,apple_control,apple_control,apple_foil,implicature,unambiguous,target,distractor,R,apple_foil,N,11/6/2015,16:03:00,0.293,4.06,4,F,100,0,-1.2275826699650698,0.34839901594443556,0.5220063149724423,bad_rt
12001,11615_2,2,6,3,cup_implic,cup_control,cup_implic,implicature,implicature,distractor,target,R,cup_implic,Y,11/6/2015,16:03:00,0.295,4.06,4,F,100,1,-1.2207799226423173,0.34839901594443556,0.5220063149724423,bad_rt
12004,11615_2,2,6,6,apple_control,apple_control,apple_foil,implicature,unambiguous,target,distractor,L,apple_control,Y,11/6/2015,16:03:00,0.289,4.06,4,F,100,1,-1.241328590869705,0.34839901594443556,0.5220063149724423,bad_rt
12023,11615_2,2,6,26,lamp_control,lamp_control,lamp_foil,implicature,unambiguous,target,distractor,L,lamp_control,Y,11/6/2015,16:03:00,0.293,4.06,4,F,100,1,-1.2275826699650698,0.34839901594443556,0.5220063149724423,bad_rt
12038,11615_2,2,6,60,dog_neg,dog_pos,dog_neg,negation,negative,distractor,target,L,dog_pos,N,11/6/2015,16:03:00,0.295,4.06,4,F,100,0,-1.2207799226423173,0.34839901594443556,0.5220063149724423,bad_rt
12041,11615_2,2,6,24,cookie_pos,cookie_inhib,cookie_pos,inhibition,control,distractor,target,L,cookie_inhib,N,11/6/2015,16:03:00,0.295,4.06,4,F,100,0,-1.2207799226423173,0.34839901594443556,0.5220063149724423,bad_rt
12042,11615_2,2,6,22,cookie_pos,cookie_inhib,cookie_pos,inhibition,control,distractor,target,R,cookie_pos,Y,11/6/2015,16:03:00,0.292,4.06,4,F,100,1,-1.2310014767138553,0.34839901594443556,0.5220063149724423,bad_rt
12045,11615_2,2,6,27,flower_pos,flower_inhib,flower_pos,inhibition,control,distractor,target,L,flower_inhib,N,11/6/2015,16:03:00,0.294,4.06,4,F,100,0,-1.2241755116434554,0.34839901594443556,0.5220063149724423,bad_rt
12057,11615_2,2,6,15,banana_pos,banana_neg,banana_pos,negation,positive,distractor,target,L,banana_neg,N,11/6/2015,16:03:00,0.293,4.06,4,F,100,0,-1.2275826699650698,0.34839901594443556,0.5220063149724423,bad_rt
12060,11615_2,2,6,29,flower_pos,flower_inhib,flower_pos,inhibition,control,distractor,target,R,flower_pos,Y,11/6/2015,16:03:00,0.292,4.06,4,F,100,1,-1.2310014767138553,0.34839901594443556,0.5220063149724423,bad_rt
12061,11615_2,2,6,6,bird_pos,bird_pos,bird_neg,negation,positive,target,distractor,L,bird_pos,Y,11/6/2015,16:03:00,7.727,4.06,4,F,100,1,2.044720688951447,0.34839901594443556,0.5220063149724423,bad_rt
12063,11615_2,2,6,8,dog_neg,dog_pos,dog_neg,negation,negative,distractor,target,R,dog_neg,Y,11/6/2015,16:03:00,0.292,4.06,4,F,100,1,-1.2310014767138553,0.34839901594443556,0.5220063149724423,bad_rt
12077,11615_2,2,6,10,car_pos,car_neg,car_pos,negation,positive,distractor,target,L,car_neg,N,11/6/2015,16:03:00,0.295,4.06,4,F,100,0,-1.2207799226423173,0.34839901594443556,0.5220063149724423,bad_rt
12184,11815_1,1,6,5,apple_pos,apple_pos,apple_inhib,inhibition,control,target,distractor,R,apple_inhib,N,11/8/2015,14:45:00,0.212,5.85,5,F,75,0,-1.5511690043101247,0.34839901594443556,0.5220063149724423,bad_rt
12264,11815_1,1,6,71,bird_inhib,bird_inhib,bird_pos,inhibition,inhib,target,distractor,R,bird_pos,N,11/8/2015,14:45:00,0.207,5.85,5,F,75,0,-1.575036485716768,0.34839901594443556,0.5220063149724423,bad_rt
12669,11815_5,1,2,67,bird_pos,bird_pos,bird_inhib,inhibition,control,target,distractor,L,bird_pos,Y,11/8/2015,15:41:00,0.257,4.6,4,F,75,1,-1.3586791940869172,0.34839901594443556,0.5220063149724423,bad_rt
12832,12115_2,2,5,12,lamp_control,lamp_control,lamp_foil,implicature,unambiguous,target,distractor,R,lamp_foil,N,12/1/2015,13:41:00,0.292,4.9,4,M,100,0,-1.2310014767138553,0.34839901594443556,0.5220063149724423,bad_rt
12863,12115_2,2,5,25,lamp_pos,lamp_pos,lamp_neg,negation,positive,target,distractor,R,lamp_neg,N,12/1/2015,13:41:00,0.294,4.9,4,M,100,0,-1.2241755116434554,0.34839901594443556,0.5220063149724423,bad_rt
12865,12115_2,2,5,27,bicycle_neg,bicycle_pos,bicycle_neg,negation,negative,distractor,target,R,bicycle_neg,Y,12/1/2015,13:41:00,8.353,4.9,4,M,100,1,2.1226207557737693,0.34839901594443556,0.5220063149724423,bad_rt
12876,12115_2,2,5,57,dog_pos,dog_inhib,dog_pos,inhibition,control,distractor,target,R,dog_pos,Y,12/1/2015,13:41:00,0.215,4.9,4,M,100,1,-1.5371172508544744,0.34839901594443556,0.5220063149724423,bad_rt
12897,12115_2,2,5,14,cookie_pos,cookie_pos,cookie_neg,negation,positive,target,distractor,R,cookie_neg,N,12/1/2015,13:41:00,0.292,4.9,4,M,100,0,-1.2310014767138553,0.34839901594443556,0.5220063149724423,bad_rt
12938,121315_2,2,2,10,flower_implic,flower_control,flower_implic,implicature,implicature,distractor,target,L,flower_control,N,12/13/2015,12:55:00,0.291,4.01,4,M,75,0,-1.2344320118106447,0.34839901594443556,0.5220063149724423,bad_rt
12971,121315_2,2,2,15,cup_implic,cup_control,cup_implic,implicature,implicature,distractor,target,L,cup_control,N,12/13/2015,12:55:00,9.661,4.01,4,M,75,0,2.2680971625353723,0.34839901594443556,0.5220063149724423,bad_rt
12979,121315_2,2,2,23,bird_implic,bird_implic,bird_control,implicature,implicature,target,distractor,R,bird_control,N,12/13/2015,12:55:00,0.293,4.01,4,M,75,0,-1.2275826699650698,0.34839901594443556,0.5220063149724423,bad_rt
12982,121315_2,2,2,26,lamp_implic,lamp_implic,lamp_control,implicature,implicature,target,distractor,L,lamp_implic,Y,12/13/2015,12:55:00,0.294,4.01,4,M,75,1,-1.2241755116434554,0.34839901594443556,0.5220063149724423,bad_rt
13016,121315_2,2,2,20,car_implic,car_control,car_implic,implicature,implicature,distractor,target,R,car_implic,Y,12/13/2015,12:55:00,0.293,4.01,4,M,75,1,-1.2275826699650698,0.34839901594443556,0.5220063149724423,bad_rt
13034,121315_2,2,2,53,lamp_pos,lamp_neg,lamp_pos,negation,positive,distractor,target,L,lamp_neg,N,12/13/2015,12:55:00,0.293,4.01,4,M,75,0,-1.2275826699650698,0.34839901594443556,0.5220063149724423,bad_rt
13085,121315_2,2,2,60,banana_implic,banana_implic,banana_control,implicature,implicature,target,distractor,L,banana_implic,Y,12/13/2015,12:55:00,0.291,4.01,4,M,75,1,-1.2344320118106447,0.34839901594443556,0.5220063149724423,bad_rt
13092,121315_2,2,2,27,bicycle_neg,bicycle_pos,bicycle_neg,negation,negative,distractor,target,R,bicycle_neg,Y,12/13/2015,12:55:00,0.238000000000001,4.01,4,M,75,1,-1.4354846053106582,0.34839901594443556,0.5220063149724423,bad_rt
13110,121315_2,2,2,53,teddybear_pos,teddybear_inhib,teddybear_pos,inhibition,control,distractor,target,R,teddybear_pos,Y,12/13/2015,12:55:00,6.954,4.01,4,M,75,1,1.9393170335856695,0.34839901594443556,0.5220063149724423,bad_rt
13114,121315_2,2,2,17,bird_pos,bird_neg,bird_pos,negation,positive,distractor,target,L,bird_neg,N,12/13/2015,12:55:00,0.293,4.01,4,M,75,0,-1.2275826699650698,0.34839901594443556,0.5220063149724423,bad_rt
13121,121315_2,2,2,38,banana_pos,banana_pos,banana_neg,negation,positive,target,distractor,L,banana_pos,Y,12/13/2015,12:55:00,0.293,4.01,4,M,75,1,-1.2275826699650698,0.34839901594443556,0.5220063149724423,bad_rt
13124,121315_2,2,2,37,car_neg,car_neg,car_pos,negation,negative,target,distractor,L,car_neg,Y,12/13/2015,12:55:00,0.261,4.01,4,M,75,1,-1.3432348716594436,0.34839901594443556,0.5220063149724423,bad_rt
13348,121715_1,1,4,15,flower_control,flower_foil,flower_control,implicature,unambiguous,distractor,target,L,flower_foil,N,12/17/2015,13:44:00,7.977,4.27,4,M,100,0,2.0765624009289927,0.34839901594443556,0.5220063149724423,bad_rt
13431,121715_1,1,4,60,lamp_pos,lamp_pos,lamp_inhib,inhibition,control,target,distractor,L,lamp_pos,Y,12/17/2015,13:44:00,0.246,4.27,4,M,100,1,-1.4024237430497744,0.34839901594443556,0.5220063149724423,bad_rt
13439,121715_1,1,4,32,cup_neg,cup_neg,cup_pos,negation,negative,target,distractor,R,cup_pos,N,12/17/2015,13:44:00,7.035,4.27,4,M,100,0,1.9508976905663524,0.34839901594443556,0.5220063149724423,bad_rt
13445,121715_1,1,4,35,bicycle_pos,bicycle_inhib,bicycle_pos,inhibition,control,distractor,target,R,bicycle_pos,Y,12/17/2015,13:44:00,9.439,4.27,4,M,100,1,2.2448500423428075,0.34839901594443556,0.5220063149724423,bad_rt
13532,121715_2,2,5,4,teddybear_control,teddybear_control,teddybear_foil,implicature,unambiguous,target,distractor,L,teddybear_control,Y,12/17/2015,13:54:00,7.327,5.39,5,M,100,1,1.9915661551778268,0.34839901594443556,0.5220063149724423,bad_rt
13538,121715_2,2,5,42,bird_neg,bird_pos,bird_neg,negation,negative,distractor,target,R,bird_neg,Y,12/17/2015,13:54:00,7.414,5.39,5,M,100,1,2.0033701047285404,0.34839901594443556,0.5220063149724423,bad_rt
13543,121715_2,2,5,52,lamp_implic,lamp_control,lamp_implic,implicature,implicature,distractor,target,L,lamp_control,N,12/17/2015,13:54:00,0.215,5.39,5,M,100,0,-1.5371172508544744,0.34839901594443556,0.5220063149724423,bad_rt
13558,121715_2,2,5,8,dog_neg,dog_neg,dog_pos,negation,negative,target,distractor,R,dog_pos,N,12/17/2015,13:54:00,0.295,5.39,5,M,100,0,-1.2207799226423173,0.34839901594443556,0.5220063149724423,bad_rt
13570,121715_2,2,5,33,bird_pos,bird_pos,bird_neg,negation,positive,target,distractor,R,bird_neg,N,12/17/2015,13:54:00,0.291,5.39,5,M,100,0,-1.2344320118106447,0.34839901594443556,0.5220063149724423,bad_rt
13611,121715_2,2,5,20,car_control,car_foil,car_control,implicature,unambiguous,distractor,target,L,car_foil,N,12/17/2015,13:54:00,0.208,5.39,5,M,100,0,-1.5702171992808192,0.34839901594443556,0.5220063149724423,bad_rt
13615,121715_2,2,5,23,bird_control,bird_foil,bird_control,implicature,unambiguous,distractor,target,L,bird_foil,N,12/17/2015,13:54:00,0.226,5.39,5,M,100,0,-1.487220279709851,0.34839901594443556,0.5220063149724423,bad_rt
13618,121715_2,2,5,49,bird_implic,bird_control,bird_implic,implicature,implicature,distractor,target,L,bird_control,N,12/17/2015,13:54:00,0.256,5.39,5,M,100,0,-1.3625778345025745,0.34839901594443556,0.5220063149724423,bad_rt
13742,121715_3,1,1,1,dog_neg,dog_neg,dog_pos,negation,negative,target,distractor,L,dog_neg,Y,12/17/2015,14:36:00,8.763,4.87,4,M,100,1,2.1705383120737136,0.34839901594443556,0.5220063149724423,bad_rt
13771,121715_3,1,1,5,cookie_implic,cookie_control,cookie_implic,implicature,implicature,distractor,target,L,cookie_control,N,12/17/2015,14:36:00,8.606,4.87,4,M,100,0,2.1524596344164078,0.34839901594443556,0.5220063149724423,bad_rt
13830,121715_3,1,1,1,banana_control,banana_control,banana_foil,implicature,unambiguous,target,distractor,L,banana_control,Y,12/17/2015,14:36:00,7.429,4.87,4,M,100,1,2.0053912601696693,0.34839901594443556,0.5220063149724423,bad_rt
13865,121815_1,1,1,15,flower_implic,flower_control,flower_implic,implicature,implicature,distractor,target,L,flower_control,N,12/18/2015,14:03:00,7.539,5.24,5,F,100,0,2.020089547229565,0.34839901594443556,0.5220063149724423,bad_rt
14311,122015_1,1,2,34,bicycle_pos,bicycle_inhib,bicycle_pos,inhibition,control,distractor,target,R,bicycle_pos,Y,12/20/2015,13:41:00,0.255,5.64,5,F,100,1,-1.3664917338237108,0.34839901594443556,0.5220063149724423,bad_rt
14427,122015_2,2,2,4,bicycle_neg,bicycle_neg,bicycle_pos,negation,negative,target,distractor,L,bicycle_neg,Y,12/20/2015,13:48:00,7.34,4.48,4,M,75,1,1.9933388426264242,0.34839901594443556,0.5220063149724423,bad_rt
14434,122015_2,2,2,12,cup_pos,cup_neg,cup_pos,negation,positive,distractor,target,L,cup_neg,N,12/20/2015,13:48:00,0.294,4.48,4,M,75,0,-1.2241755116434554,0.34839901594443556,0.5220063149724423,bad_rt
14520,122015_2,2,2,2,cup_pos,cup_pos,cup_inhib,inhibition,control,target,distractor,R,cup_inhib,N,12/20/2015,13:48:00,0.285,4.48,4,M,75,0,-1.2552660987134867,0.34839901594443556,0.5220063149724423,bad_rt
14561,122015_2,2,2,22,banana_implic,banana_control,banana_implic,implicature,implicature,distractor,target,R,banana_implic,Y,12/20/2015,13:48:00,0.29,4.48,4,M,75,1,-1.2378743560016174,0.34839901594443556,0.5220063149724423,bad_rt
14620,122015_3,1,3,49,lamp_control,lamp_control,lamp_foil,implicature,unambiguous,target,distractor,L,lamp_control,Y,12/20/2015,14:22:00,0.28,4.7,4,F,75,1,-1.2729656758128873,0.34839901594443556,0.5220063149724423,bad_rt
14674,122015_3,1,3,2,cat_neg,cat_neg,cat_pos,negation,negative,target,distractor,L,cat_neg,Y,12/20/2015,14:22:00,9.08,4.7,4,F,75,1,2.206074192613202,0.34839901594443556,0.5220063149724423,bad_rt
14677,122015_3,1,3,5,car_neg,car_pos,car_neg,negation,negative,distractor,target,R,car_neg,Y,12/20/2015,14:22:00,8.8,4.7,4,F,75,1,2.174751721484161,0.34839901594443556,0.5220063149724423,bad_rt
14699,122015_3,1,3,25,car_neg,car_pos,car_neg,negation,negative,distractor,target,L,car_pos,N,12/20/2015,14:22:00,8.315,4.7,4,F,75,0,2.1180611126448907,0.34839901594443556,0.5220063149724423,bad_rt
14793,122015_6,2,3,37,car_pos,car_pos,car_neg,negation,positive,target,distractor,R,car_neg,N,12/20/2015,15:20:00,7.015,6.15,6,F,95,0,1.9480507135544243,0.34839901594443556,0.5220063149724423,bad_rt
14841,122015_6,2,3,5,lamp_neg,lamp_pos,lamp_neg,negation,negative,distractor,target,L,lamp_pos,N,12/20/2015,15:20:00,7.6,6.15,6,F,95,0,2.028148247292285,0.34839901594443556,0.5220063149724423,bad_rt
14959,122015_7,1,4,6,teddybear_control,teddybear_foil,teddybear_control,implicature,unambiguous,distractor,target,R,teddybear_control,Y,12/20/2015,15:57:00,7.826,5.41,5,F,95,1,2.0574515237882207,0.34839901594443556,0.5220063149724423,bad_rt
14980,122015_7,1,4,56,lamp_pos,lamp_pos,lamp_neg,negation,positive,target,distractor,R,lamp_neg,N,12/20/2015,15:57:00,0.293,5.41,5,F,95,0,-1.2275826699650698,0.34839901594443556,0.5220063149724423,bad_rt
15292,12215_2,2,5,60,banana_control,banana_control,banana_foil,implicature,unambiguous,target,distractor,L,banana_control,Y,12/2/2015,13:43:00,8.136,5.13,5,F,100,1,2.096298658746259,0.34839901594443556,0.5220063149724423,bad_rt
15315,12215_2,2,5,2,bicycle_implic,bicycle_implic,bicycle_control,implicature,implicature,target,distractor,L,bicycle_implic,Y,12/2/2015,13:43:00,0.284,5.13,5,F,100,1,-1.258781040820931,0.34839901594443556,0.5220063149724423,bad_rt
15316,12215_2,2,5,3,cup_control,cup_foil,cup_control,implicature,unambiguous,distractor,target,L,cup_foil,N,12/2/2015,13:43:00,7.887,5.13,5,F,100,0,2.065215834415854,0.34839901594443556,0.5220063149724423,bad_rt
15702,12215_7,1,3,8,lamp_neg,lamp_pos,lamp_neg,negation,negative,distractor,target,R,lamp_neg,Y,12/2/2015,16:03:00,7.315,4.7,4,M,100,1,1.9899270344720876,0.34839901594443556,0.5220063149724423,bad_rt
15776,12215_7,1,3,59,flower_pos,flower_neg,flower_pos,negation,positive,distractor,target,R,flower_pos,Y,12/2/2015,16:03:00,9.998,4.7,4,M,100,1,2.3023850729913784,0.34839901594443556,0.5220063149724423,bad_rt
15789,12215_7,1,3,2,apple_pos,apple_pos,apple_inhib,inhibition,control,target,distractor,L,apple_pos,Y,12/2/2015,16:03:00,0.295,4.7,4,M,100,1,-1.2207799226423173,0.34839901594443556,0.5220063149724423,bad_rt
15908,12415_1,1,6,4,cookie_neg,cookie_neg,cookie_pos,negation,negative,target,distractor,R,cookie_pos,N,12/2/2015,16:11:00,8.206,4.68,4,M,100,0,2.1048655940199943,0.34839901594443556,0.5220063149724423,bad_rt
16015,12415_3,1,5,2,cup_implic,cup_implic,cup_control,implicature,implicature,target,distractor,L,cup_implic,Y,12/4/2015,14:35:00,9.327,4.95,4,M,95,1,2.2329134197447265,0.34839901594443556,0.5220063149724423,bad_rt
16046,12415_3,1,5,35,lamp_implic,lamp_implic,lamp_control,implicature,implicature,target,distractor,R,lamp_control,N,12/4/2015,14:35:00,8.021,4.95,4,M,95,0,2.0820631023847875,0.34839901594443556,0.5220063149724423,bad_rt
16083,12415_3,1,5,52,apple_neg,apple_neg,apple_pos,negation,negative,target,distractor,L,apple_neg,Y,12/4/2015,14:35:00,0.28199999999999803,4.95,4,M,95,1,-1.2658482080440305,0.34839901594443556,0.5220063149724423,bad_rt
16088,12415_3,1,5,57,bicycle_neg,bicycle_pos,bicycle_neg,negation,negative,distractor,target,R,bicycle_neg,Y,12/4/2015,14:35:00,0.236000000000001,4.95,4,M,95,1,-1.4439234739565228,0.34839901594443556,0.5220063149724423,bad_rt
16097,12415_3,1,5,16,bird_control,bird_foil,bird_control,implicature,unambiguous,distractor,target,L,bird_foil,N,12/4/2015,14:35:00,7.959,4.95,4,M,95,0,2.074303363823712,0.34839901594443556,0.5220063149724423,bad_rt
16162,12415_4,2,3,12,bird_pos,bird_inhib,bird_pos,inhibition,control,distractor,target,R,bird_pos,Y,12/4/2015,14:41:00,8.525,4.66,4,M,75,1,2.1430030231695807,0.34839901594443556,0.5220063149724423,bad_rt
16169,12415_4,2,3,38,banana_pos,banana_pos,banana_neg,negation,positive,target,distractor,L,banana_pos,Y,12/4/2015,14:41:00,0.29,4.66,4,M,75,1,-1.2378743560016174,0.34839901594443556,0.5220063149724423,bad_rt
16175,12415_4,2,3,44,lamp_neg,lamp_neg,lamp_pos,negation,negative,target,distractor,L,lamp_neg,Y,12/4/2015,14:41:00,0.200999999999997,4.66,4,M,75,1,-1.6044503709230762,0.34839901594443556,0.5220063149724423,bad_rt
16177,12415_4,2,3,46,cookie_neg,cookie_pos,cookie_neg,negation,negative,distractor,target,L,cookie_pos,N,12/4/2015,14:41:00,0.221,4.66,4,M,75,0,-1.5095925774643841,0.34839901594443556,0.5220063149724423,bad_rt
16209,12415_4,2,3,58,dog_pos,dog_pos,dog_inhib,inhibition,control,target,distractor,R,dog_inhib,N,12/4/2015,14:41:00,0.269,4.66,4,M,75,0,-1.313043899380298,0.34839901594443556,0.5220063149724423,bad_rt
16211,12415_4,2,3,60,dog_pos,dog_inhib,dog_pos,inhibition,control,distractor,target,R,dog_pos,Y,12/4/2015,14:41:00,0.294,4.66,4,M,75,1,-1.2241755116434554,0.34839901594443556,0.5220063149724423,bad_rt
16219,12415_4,2,3,68,car_pos,car_inhib,car_pos,inhibition,control,distractor,target,R,car_pos,Y,12/4/2015,14:41:00,0.256,4.66,4,M,75,1,-1.3625778345025745,0.34839901594443556,0.5220063149724423,bad_rt
16221,12415_4,2,3,70,car_inhib,car_pos,car_inhib,inhibition,inhib,distractor,target,R,car_inhib,Y,12/4/2015,14:41:00,0.202,4.66,4,M,75,1,-1.5994875815809322,0.34839901594443556,0.5220063149724423,bad_rt
16245,12415_4,2,3,33,bird_neg,bird_pos,bird_neg,negation,negative,distractor,target,R,bird_neg,Y,12/4/2015,14:41:00,0.226,4.66,4,M,75,1,-1.487220279709851,0.34839901594443556,0.5220063149724423,bad_rt
16357,12615_2,2,2,23,flower_pos,flower_pos,flower_neg,negation,positive,target,distractor,R,flower_neg,N,12/6/2015,14:58:00,9.939,5.72,5,F,75,0,2.2964664119858686,0.34839901594443556,0.5220063149724423,bad_rt
16382,12615_2,2,2,48,flower_pos,flower_neg,flower_pos,negation,positive,distractor,target,R,flower_pos,Y,12/6/2015,14:58:00,6.789,5.72,5,F,75,1,1.91530365531951,0.34839901594443556,0.5220063149724423,bad_rt
16694,12615_5,1,6,13,flower_pos,flower_pos,flower_neg,negation,positive,target,distractor,L,flower_pos,Y,12/6/2015,15:29:00,0.294,4.92,4,F,100,1,-1.2241755116434554,0.34839901594443556,0.5220063149724423,bad_rt
16704,12615_5,1,6,23,banana_pos,banana_pos,banana_neg,negation,positive,target,distractor,R,banana_neg,N,12/6/2015,15:29:00,7.634,4.92,4,F,100,0,2.032611954323038,0.34839901594443556,0.5220063149724423,bad_rt
16707,12615_5,1,6,26,banana_pos,banana_neg,banana_pos,negation,positive,distractor,target,R,banana_pos,Y,12/6/2015,15:29:00,0.294,4.92,4,F,100,1,-1.2241755116434554,0.34839901594443556,0.5220063149724423,bad_rt
16710,12615_5,1,6,16,cat_neg,cat_neg,cat_pos,negation,negative,target,distractor,L,cat_neg,Y,12/6/2015,15:29:00,7.907,4.92,4,F,100,1,2.06774844308879,0.34839901594443556,0.5220063149724423,bad_rt
16720,12615_5,1,6,39,cat_neg,cat_pos,cat_neg,negation,negative,distractor,target,R,cat_neg,Y,12/6/2015,15:29:00,7.5,4.92,4,F,100,1,2.0149030205422647,0.34839901594443556,0.5220063149724423,bad_rt
16728,12615_5,1,6,47,cookie_pos,cookie_neg,cookie_pos,negation,positive,distractor,target,L,cookie_neg,N,12/6/2015,15:29:00,0.295,4.92,4,F,100,0,-1.2207799226423173,0.34839901594443556,0.5220063149724423,bad_rt
16737,12615_5,1,6,56,lamp_pos,lamp_pos,lamp_neg,negation,positive,target,distractor,R,lamp_neg,N,12/6/2015,15:29:00,0.294,4.92,4,F,100,0,-1.2241755116434554,0.34839901594443556,0.5220063149724423,bad_rt
16742,12615_5,1,6,1,banana_implic,banana_control,banana_implic,implicature,implicature,distractor,target,R,banana_implic,Y,12/6/2015,15:29:00,9.619,4.92,4,F,100,1,2.2637403091704784,0.34839901594443556,0.5220063149724423,bad_rt
16748,12615_5,1,6,7,dog_implic,dog_implic,dog_control,implicature,implicature,target,distractor,L,dog_implic,Y,12/6/2015,15:29:00,0.295,4.92,4,F,100,1,-1.2207799226423173,0.34839901594443556,0.5220063149724423,bad_rt
16753,12615_5,1,6,12,bird_implic,bird_control,bird_implic,implicature,implicature,distractor,target,R,bird_implic,Y,12/6/2015,15:29:00,0.294,4.92,4,F,100,1,-1.2241755116434554,0.34839901594443556,0.5220063149724423,bad_rt
16756,12615_5,1,6,15,flower_implic,flower_implic,flower_control,implicature,implicature,target,distractor,L,flower_implic,Y,12/6/2015,15:29:00,0.295,4.92,4,F,100,1,-1.2207799226423173,0.34839901594443556,0.5220063149724423,bad_rt
16772,12615_5,1,6,9,apple_pos,apple_neg,apple_pos,negation,positive,distractor,target,R,apple_pos,Y,12/6/2015,15:29:00,0.292,4.92,4,F,100,1,-1.2310014767138553,0.34839901594443556,0.5220063149724423,bad_rt
16780,12615_5,1,6,38,bird_control,bird_foil,bird_control,implicature,unambiguous,distractor,target,L,bird_foil,N,12/6/2015,15:29:00,0.293,4.92,4,F,100,0,-1.2275826699650698,0.34839901594443556,0.5220063149724423,bad_rt
16783,12615_5,1,6,27,apple_implic,apple_control,apple_implic,implicature,implicature,distractor,target,L,apple_control,N,12/6/2015,15:29:00,0.29,4.92,4,F,100,0,-1.2378743560016174,0.34839901594443556,0.5220063149724423,bad_rt
16790,12615_5,1,6,21,banana_control,banana_control,banana_foil,implicature,unambiguous,target,distractor,R,banana_foil,N,12/6/2015,15:29:00,0.293,4.92,4,F,100,0,-1.2275826699650698,0.34839901594443556,0.5220063149724423,bad_rt
16816,12715_1,1,3,25,car_pos,car_pos,car_neg,negation,positive,target,distractor,R,car_neg,N,12/8/2015,12:58:00,0.289,4.87,4,M,100,0,-1.241328590869705,0.34839901594443556,0.5220063149724423,bad_rt
16857,12715_2,2,4,50,flower_implic,flower_control,flower_implic,implicature,implicature,distractor,target,L,flower_control,N,12/8/2015,13:42:00,0.293,4.87,4,M,100,0,-1.2275826699650698,0.34839901594443556,0.5220063149724423,bad_rt
16864,12715_2,2,4,57,cat_implic,cat_control,cat_implic,implicature,implicature,distractor,target,L,cat_control,N,12/8/2015,13:42:00,0.292,4.87,4,M,100,0,-1.2310014767138553,0.34839901594443556,0.5220063149724423,bad_rt
16867,12715_2,2,4,60,banana_control,banana_foil,banana_control,implicature,unambiguous,distractor,target,R,banana_control,Y,12/8/2015,13:42:00,0.293,4.87,4,M,100,1,-1.2275826699650698,0.34839901594443556,0.5220063149724423,bad_rt
16891,12715_2,2,4,3,cup_control,cup_foil,cup_control,implicature,unambiguous,distractor,target,R,cup_control,Y,12/8/2015,13:42:00,7.188,4.87,4,M,100,1,1.9724129689213126,0.34839901594443556,0.5220063149724423,bad_rt
49,111015_1,1,2,4,apple_pos,apple_pos,apple_inhib,inhibition,control,target,distractor,L,apple_pos,Y,11/10/2015,13:10:00,0.049,4.97,4,F,100,1,-3.0159349808715104,NA,NA,bad_rt
53,111015_1,1,2,41,car_control,car_foil,car_control,implicature,unambiguous,distractor,target,L,car_foil,N,11/10/2015,13:10:00,0.167,4.97,4,F,100,0,-1.7897614665653818,NA,NA,bad_rt
59,111015_1,1,2,51,car_pos,car_pos,car_neg,negation,positive,target,distractor,L,car_pos,Y,11/10/2015,13:10:00,0.045,4.97,4,F,100,1,-3.101092789211817,NA,NA,bad_rt
72,111015_1,1,2,11,car_pos,car_inhib,car_pos,inhibition,control,distractor,target,L,car_inhib,N,11/10/2015,13:10:00,0.045,4.97,4,F,100,0,-3.101092789211817,NA,NA,bad_rt
73,111015_1,1,2,50,teddybear_pos,teddybear_pos,teddybear_neg,negation,positive,target,distractor,L,teddybear_pos,Y,11/10/2015,13:10:00,0.044,4.97,4,F,100,1,-3.123565645063876,NA,NA,bad_rt
77,111015_1,1,2,40,lamp_implic,lamp_control,lamp_implic,implicature,implicature,distractor,target,L,lamp_control,N,11/10/2015,13:10:00,0.137,4.97,4,F,100,0,-1.987774353154012,NA,NA,bad_rt
78,111015_1,1,2,3,apple_pos,apple_pos,apple_inhib,inhibition,control,target,distractor,L,apple_pos,Y,11/10/2015,13:10:00,0.042,4.97,4,F,100,1,-3.170085660698769,NA,NA,bad_rt
93,111015_1,1,2,42,cat_control,cat_control,cat_foil,implicature,unambiguous,target,distractor,L,cat_control,Y,11/10/2015,13:10:00,0.122,4.97,4,F,100,1,-2.1037342342488805,NA,NA,bad_rt
94,111015_1,1,2,43,flower_implic,flower_implic,flower_control,implicature,implicature,target,distractor,L,flower_implic,Y,11/10/2015,13:10:00,0.129,4.97,4,F,100,1,-2.047942874620465,NA,NA,bad_rt
99,111015_1,1,2,46,cup_implic,cup_implic,cup_control,implicature,implicature,target,distractor,L,cup_implic,Y,11/10/2015,13:10:00,0.046,4.97,4,F,100,1,-3.079113882493042,NA,NA,bad_rt
113,111015_1,1,2,47,dog_implic,dog_control,dog_implic,implicature,implicature,distractor,target,L,dog_control,N,11/10/2015,13:10:00,0.045,4.97,4,F,100,0,-3.101092789211817,NA,NA,bad_rt
168,111015_1,1,2,48,apple_control,apple_control,apple_foil,implicature,unambiguous,target,distractor,L,apple_control,Y,11/10/2015,13:10:00,0.047,4.97,4,F,100,1,-3.0576076772720784,NA,NA,bad_rt
621,111115_12,2,5,21,car_neg,car_pos,car_neg,negation,negative,distractor,target,L,car_pos,N,11/11/2015,14:31:00,0.0339999999999995,4.36,4,F,100,0,-3.3813947543659904,NA,NA,bad_rt
636,111115_12,2,5,53,bicycle_control,bicycle_foil,bicycle_control,implicature,unambiguous,distractor,target,L,bicycle_foil,N,11/11/2015,14:31:00,0.048,4.36,4,F,100,0,-3.036554268074246,NA,NA,bad_rt
638,111115_12,2,5,22,cat_neg,cat_pos,cat_neg,negation,negative,distractor,target,L,cat_pos,N,11/11/2015,14:31:00,0.0100000000000009,4.36,4,F,100,0,-4.605170185988001,NA,NA,bad_rt
647,111115_12,2,5,54,dog_implic,dog_implic,dog_control,implicature,implicature,target,distractor,L,dog_implic,Y,11/11/2015,14:31:00,0.042,4.36,4,F,100,1,-3.170085660698769,NA,NA,bad_rt
650,111115_12,2,5,55,teddybear_control,teddybear_control,teddybear_foil,implicature,unambiguous,target,distractor,L,teddybear_control,Y,11/11/2015,14:31:00,0.047,4.36,4,F,100,1,-3.0576076772720784,NA,NA,bad_rt
671,111115_12,2,5,7,cup_inhib,cup_pos,cup_inhib,inhibition,inhib,distractor,target,L,cup_pos,N,11/11/2015,14:31:00,0.048,4.36,4,F,100,0,-3.036554268074246,NA,NA,bad_rt
721,111115_12,2,5,18,lamp_pos,lamp_inhib,lamp_pos,inhibition,control,distractor,target,L,lamp_inhib,N,11/11/2015,14:31:00,0.043,4.36,4,F,100,0,-3.146555163288575,NA,NA,bad_rt
725,111115_12,2,5,6,cup_pos,cup_inhib,cup_pos,inhibition,control,distractor,target,L,cup_inhib,N,11/11/2015,14:31:00,0.046,4.36,4,F,100,0,-3.079113882493042,NA,NA,bad_rt
731,111115_12,2,5,56,teddybear_pos,teddybear_pos,teddybear_inhib,inhibition,control,target,distractor,R,teddybear_inhib,N,11/11/2015,14:31:00,0.047,4.36,4,F,100,0,-3.0576076772720784,NA,NA,bad_rt
760,111115_12,2,5,58,teddybear_pos,teddybear_inhib,teddybear_pos,inhibition,control,distractor,target,R,teddybear_pos,Y,11/11/2015,14:31:00,0.045,4.36,4,F,100,1,-3.101092789211817,NA,NA,bad_rt
787,111115_12,2,5,57,teddybear_pos,teddybear_inhib,teddybear_pos,inhibition,control,distractor,target,R,teddybear_pos,Y,11/11/2015,14:31:00,0.049,4.36,4,F,100,1,-3.0159349808715104,NA,NA,bad_rt
838,111115_14,2,6,48,flower_pos,flower_neg,flower_pos,negation,positive,distractor,target,L,flower_neg,N,11/11/2015,15:22:00,0.044,4.6,4,F,100,0,-3.123565645063876,NA,NA,bad_rt
839,111115_14,2,6,49,banana_pos,banana_neg,banana_pos,negation,positive,distractor,target,L,banana_neg,N,11/11/2015,15:22:00,0.043,4.6,4,F,100,0,-3.146555163288575,NA,NA,bad_rt
871,111115_14,2,6,6,bird_neg,bird_neg,bird_pos,negation,negative,target,distractor,L,bird_neg,Y,11/11/2015,15:22:00,14.143,4.6,4,F,100,1,2.649219802038363,NA,NA,bad_rt
885,111115_14,2,6,4,bicycle_neg,bicycle_pos,bicycle_neg,negation,negative,distractor,target,L,bicycle_pos,N,11/11/2015,15:22:00,31.076,4.6,4,F,100,0,3.4364358170881744,NA,NA,bad_rt
942,111115_14,2,6,2,bicycle_control,bicycle_foil,bicycle_control,implicature,unambiguous,distractor,target,R,bicycle_control,Y,11/11/2015,15:22:00,18.679,4.6,4,F,100,1,2.927399898177166,NA,NA,bad_rt
1049,111115_16,2,2,45,cat_neg,cat_neg,cat_pos,negation,negative,target,distractor,L,cat_neg,Y,11/11/2015,16:04:00,0.011000000000000901,4.23,4,M,100,1,-4.509860006183684,NA,NA,bad_rt
1073,111115_16,2,2,44,lamp_neg,lamp_pos,lamp_neg,negation,negative,distractor,target,L,lamp_pos,N,11/11/2015,16:04:00,0.0339999999999973,4.23,4,M,100,0,-3.381394754366055,NA,NA,bad_rt
1103,111115_16,2,2,20,car_control,car_foil,car_control,implicature,unambiguous,distractor,target,R,car_control,Y,11/11/2015,16:04:00,12.223,4.23,4,M,100,1,2.503319422795126,NA,NA,bad_rt
1131,111115_16,2,2,31,flower_pos,flower_pos,flower_inhib,inhibition,control,target,distractor,R,flower_inhib,N,11/11/2015,16:04:00,0.158,4.23,4,M,100,0,-1.8451602459551701,NA,NA,bad_rt
1141,111115_16,2,2,40,bicycle_pos,bicycle_pos,bicycle_inhib,inhibition,control,target,distractor,L,bicycle_pos,Y,11/11/2015,16:04:00,10.506,4.23,4,M,100,1,2.3519465225317697,NA,NA,bad_rt
1151,111115_16,2,2,30,flower_pos,flower_inhib,flower_pos,inhibition,control,distractor,target,R,flower_pos,Y,11/11/2015,16:04:00,0.192,4.23,4,M,100,1,-1.6502599069543555,NA,NA,bad_rt
1189,111115_16,2,2,11,teddybear_neg,teddybear_pos,teddybear_neg,negation,negative,distractor,target,R,teddybear_neg,Y,11/11/2015,16:04:00,10.623,4.23,4,M,100,1,2.363021461797876,NA,NA,bad_rt
1294,111115_17,1,2,16,bird_control,bird_control,bird_foil,implicature,unambiguous,target,distractor,L,bird_control,Y,11/11/2015,16:20:00,15.931,5.59,5,F,95,1,2.7682668965907578,NA,NA,bad_rt
1982,111115_5,1,2,1,dog_neg,dog_pos,dog_neg,negation,negative,distractor,target,R,dog_neg,Y,11/11/2015,12:04:00,10.116,4.72,4,F,100,1,2.3141183288077185,NA,NA,bad_rt
1984,111115_5,1,2,32,cup_pos,cup_pos,cup_neg,negation,positive,target,distractor,L,cup_pos,Y,11/11/2015,12:04:00,11.466,4.72,4,F,100,1,2.439386134486191,NA,NA,bad_rt
2468,111115_8,2,5,1,cookie_neg,cookie_pos,cookie_neg,negation,negative,distractor,target,L,cookie_pos,N,11/11/2015,13:39:00,23.156,5.27,5,F,100,0,3.142253926216758,NA,NA,bad_rt
2566,111115_8,2,5,2,cup_pos,cup_inhib,cup_pos,inhibition,control,distractor,target,L,cup_inhib,N,11/11/2015,13:39:00,0.12,5.27,5,F,100,0,-2.120263536200091,NA,NA,bad_rt
2773,111115_9,1,4,5,cookie_control,cookie_foil,cookie_control,implicature,unambiguous,distractor,target,R,cookie_control,Y,11/11/2015,13:56:00,10.942,6.08,6,F,75,1,2.3926085956416343,NA,NA,bad_rt
2850,11115_1,1,5,44,bicycle_implic,bicycle_control,bicycle_implic,implicature,implicature,distractor,target,L,bicycle_control,N,11/1/2015,15:27:00,0.16,5.62,5,F,95,0,-1.8325814637483102,NA,NA,bad_rt
3189,111215_1,1,3,52,apple_neg,apple_neg,apple_pos,negation,negative,target,distractor,L,apple_neg,Y,11/12/2015,14:46:00,0.0189999999999978,4.66,4,F,100,1,-3.9633162998158125,NA,NA,bad_rt
3209,111215_1,1,3,41,lamp_pos,lamp_pos,lamp_neg,negation,positive,target,distractor,L,lamp_pos,Y,11/12/2015,14:46:00,0.045,4.66,4,F,100,1,-3.101092789211817,NA,NA,bad_rt
3229,111215_1,1,3,24,teddybear_pos,teddybear_inhib,teddybear_pos,inhibition,control,distractor,target,L,teddybear_inhib,N,11/12/2015,14:46:00,0.045,4.66,4,F,100,0,-3.101092789211817,NA,NA,bad_rt
3232,111215_1,1,3,39,bicycle_inhib,bicycle_inhib,bicycle_pos,inhibition,inhib,target,distractor,R,bicycle_pos,N,11/12/2015,14:46:00,0.048,4.66,4,F,100,0,-3.036554268074246,NA,NA,bad_rt
3235,111215_1,1,3,42,cup_neg,cup_neg,cup_pos,negation,negative,target,distractor,L,cup_neg,Y,11/12/2015,14:46:00,0.037000000000000706,4.66,4,F,100,1,-3.2968373663378934,NA,NA,bad_rt
3236,111215_1,1,3,49,cup_neg,cup_pos,cup_neg,negation,negative,distractor,target,L,cup_pos,N,11/12/2015,14:46:00,0.0340000000000007,4.66,4,F,100,0,-3.381394754365955,NA,NA,bad_rt
3244,111215_1,1,3,29,banana_pos,banana_pos,banana_inhib,inhibition,control,target,distractor,L,banana_pos,Y,11/12/2015,14:46:00,0.046,4.66,4,F,100,1,-3.079113882493042,NA,NA,bad_rt
3245,111215_1,1,3,35,flower_neg,flower_pos,flower_neg,negation,negative,distractor,target,L,flower_pos,N,11/12/2015,14:46:00,0.0810000000000005,4.66,4,F,100,0,-2.513306124309692,NA,NA,bad_rt
3271,111215_1,1,3,36,lamp_pos,lamp_neg,lamp_pos,negation,positive,distractor,target,L,lamp_neg,N,11/12/2015,14:46:00,0.047,4.66,4,F,100,0,-3.0576076772720784,NA,NA,bad_rt
3274,111215_1,1,3,6,apple_inhib,apple_inhib,apple_pos,inhibition,inhib,target,distractor,L,apple_inhib,Y,11/12/2015,14:46:00,0.048,4.66,4,F,100,1,-3.036554268074246,NA,NA,bad_rt
3278,111215_1,1,3,52,flower_pos,flower_pos,flower_inhib,inhibition,control,target,distractor,R,flower_inhib,N,11/12/2015,14:46:00,0.044,4.66,4,F,100,0,-3.123565645063876,NA,NA,bad_rt
3280,111215_1,1,3,55,bird_neg,bird_pos,bird_neg,negation,negative,distractor,target,L,bird_pos,N,11/12/2015,14:46:00,0.0319999999999998,4.66,4,F,100,0,-3.442019376182417,NA,NA,bad_rt
3281,111215_1,1,3,30,cookie_pos,cookie_neg,cookie_pos,negation,positive,distractor,target,L,cookie_neg,N,11/12/2015,14:46:00,0.043,4.66,4,F,100,0,-3.146555163288575,NA,NA,bad_rt
3290,111215_1,1,3,53,flower_inhib,flower_inhib,flower_pos,inhibition,inhib,target,distractor,R,flower_pos,N,11/12/2015,14:46:00,0.044,4.66,4,F,100,0,-3.123565645063876,NA,NA,bad_rt
3291,111215_1,1,3,28,bird_neg,bird_pos,bird_neg,negation,negative,distractor,target,L,bird_pos,N,11/12/2015,14:46:00,0.0259999999999998,4.66,4,F,100,0,-3.6496587409606627,NA,NA,bad_rt
3297,111215_1,1,3,24,car_neg,car_pos,car_neg,negation,negative,distractor,target,L,car_pos,N,11/12/2015,14:46:00,0.027999999999999498,4.66,4,F,100,0,-3.575550768806951,NA,NA,bad_rt
3298,111215_1,1,3,29,teddybear_pos,teddybear_pos,teddybear_neg,negation,positive,target,distractor,L,teddybear_pos,Y,11/12/2015,14:46:00,0.046,4.66,4,F,100,1,-3.079113882493042,NA,NA,bad_rt
3301,111215_1,1,3,60,cookie_neg,cookie_pos,cookie_neg,negation,negative,distractor,target,R,cookie_neg,Y,11/12/2015,14:46:00,0.0270000000000005,4.66,4,F,100,1,-3.6119184129777895,NA,NA,bad_rt
3306,111215_1,1,3,58,cat_neg,cat_neg,cat_pos,negation,negative,target,distractor,L,cat_neg,Y,11/12/2015,14:46:00,0.00600000000000085,4.66,4,F,100,1,-5.11599580975394,NA,NA,bad_rt
3331,111215_4,2,3,53,lamp_neg,lamp_neg,lamp_pos,negation,negative,target,distractor,L,lamp_neg,Y,11/12/2015,15:24:00,0.0319999999999973,4.24,4,M,100,1,-3.4420193761824946,NA,NA,bad_rt
3347,111215_4,2,3,7,banana_neg,banana_pos,banana_neg,negation,negative,distractor,target,L,banana_pos,N,11/12/2015,15:24:00,19.053,4.24,4,M,100,0,2.9472245694889474,NA,NA,bad_rt
3384,111215_5,1,5,69,bird_pos,bird_pos,bird_inhib,inhibition,control,target,distractor,L,bird_pos,Y,11/12/2015,15:34:00,0.119,6.04,6,F,100,1,-2.1286317858706076,NA,NA,bad_rt
3414,111215_5,1,5,25,banana_pos,banana_pos,banana_inhib,inhibition,control,target,distractor,R,banana_inhib,N,11/12/2015,15:34:00,0.163,6.04,6,F,100,0,-1.8140050781753747,NA,NA,bad_rt
3418,111215_5,1,5,70,bird_inhib,bird_inhib,bird_pos,inhibition,inhib,target,distractor,R,bird_pos,N,11/12/2015,15:34:00,0.121,6.04,6,F,100,0,-2.111964733385396,NA,NA,bad_rt
3440,111215_5,1,5,24,teddybear_inhib,teddybear_pos,teddybear_inhib,inhibition,inhib,distractor,target,R,teddybear_inhib,Y,11/12/2015,15:34:00,0.171,6.04,6,F,100,1,-1.7660917224794772,NA,NA,bad_rt
3460,111215_5,1,5,72,cup_pos,cup_inhib,cup_pos,inhibition,control,distractor,target,L,cup_inhib,N,11/12/2015,15:34:00,0.018,6.04,6,F,100,0,-4.017383521085972,NA,NA,bad_rt
3464,111215_5,1,5,34,bicycle_pos,bicycle_pos,bicycle_inhib,inhibition,control,target,distractor,R,bicycle_inhib,N,11/12/2015,15:34:00,12.616,6.04,6,F,100,0,2.534965849660737,NA,NA,bad_rt
3486,111215_5,1,5,71,cup_pos,cup_inhib,cup_pos,inhibition,control,distractor,target,R,cup_pos,Y,11/12/2015,15:34:00,0.171,6.04,6,F,100,1,-1.7660917224794772,NA,NA,bad_rt
3490,111215_5,1,5,73,cup_pos,cup_pos,cup_inhib,inhibition,control,target,distractor,R,cup_inhib,N,11/12/2015,15:34:00,0.002,6.04,6,F,100,0,-6.214608098422191,NA,NA,bad_rt
3527,111215_5,1,5,56,cookie_inhib,cookie_inhib,cookie_pos,inhibition,inhib,target,distractor,R,cookie_pos,N,11/12/2015,15:34:00,12.79,6.04,6,F,100,0,2.548663615590751,NA,NA,bad_rt
3587,111215_7,1,6,2,cat_neg,cat_neg,cat_pos,negation,negative,target,distractor,L,cat_neg,Y,11/12/2015,16:07:00,10.55,5.61,5,F,100,1,2.3561258599220753,NA,NA,bad_rt
4040,111315_2,2,4,16,dog_pos,dog_pos,dog_neg,negation,positive,target,distractor,L,dog_pos,Y,11/13/2015,11:49:00,0.122,6.15,6,M,95,1,-2.1037342342488805,NA,NA,bad_rt
4077,111315_2,2,4,17,bird_neg,bird_neg,bird_pos,negation,negative,target,distractor,L,bird_neg,Y,11/13/2015,11:49:00,0.0659999999999998,6.15,6,M,95,1,-2.7181005369557147,NA,NA,bad_rt
4120,111315_2,2,4,19,cup_pos,cup_pos,cup_neg,negation,positive,target,distractor,L,cup_pos,Y,11/13/2015,11:49:00,0.052,6.15,6,M,95,1,-2.9565115604007097,NA,NA,bad_rt
4122,111315_2,2,4,20,lamp_neg,lamp_neg,lamp_pos,negation,negative,target,distractor,L,lamp_neg,Y,11/13/2015,11:49:00,0.153999999999997,6.15,6,M,95,1,-1.8708026765685273,NA,NA,bad_rt
4124,111315_2,2,4,21,car_pos,car_neg,car_pos,negation,positive,distractor,target,R,car_pos,Y,11/13/2015,11:49:00,0.061,6.15,6,M,95,1,-2.796881414808826,NA,NA,bad_rt
4144,111315_2,2,4,23,flower_neg,flower_pos,flower_neg,negation,negative,distractor,target,L,flower_pos,N,11/13/2015,11:49:00,0.015000000000000499,6.15,6,M,95,0,-4.1997050778798934,NA,NA,bad_rt
4182,111315_2,2,4,25,lamp_pos,lamp_pos,lamp_neg,negation,positive,target,distractor,R,lamp_neg,N,11/13/2015,11:49:00,0.099,6.15,6,M,95,0,-2.312635428847547,NA,NA,bad_rt
4221,111315_5,1,6,3,teddybear_neg,teddybear_pos,teddybear_neg,negation,negative,distractor,target,R,teddybear_neg,Y,11/13/2015,12:29:00,18.186,4.66,4,F,75,1,2.9006520673037213,NA,NA,bad_rt
4224,111315_5,1,6,4,cat_implic,cat_implic,cat_control,implicature,implicature,target,distractor,L,cat_implic,Y,11/13/2015,12:29:00,0.169,4.66,4,F,75,1,-1.7778565640590636,NA,NA,bad_rt
4230,111315_5,1,6,33,car_implic,car_implic,car_control,implicature,implicature,target,distractor,L,car_implic,Y,11/13/2015,12:29:00,10.187,4.66,4,F,75,1,2.321112397607929,NA,NA,bad_rt
4240,111315_5,1,6,5,car_neg,car_pos,car_neg,negation,negative,distractor,target,L,car_pos,N,11/13/2015,12:29:00,10.245,4.66,4,F,75,0,2.326789781690863,NA,NA,bad_rt
4243,111315_5,1,6,9,lamp_implic,lamp_control,lamp_implic,implicature,implicature,distractor,target,L,lamp_control,N,11/13/2015,12:29:00,14.16,4.66,4,F,75,0,2.6504210882655737,NA,NA,bad_rt
4266,111315_5,1,6,6,cup_neg,cup_neg,cup_pos,negation,negative,target,distractor,L,cup_neg,Y,11/13/2015,12:29:00,16.975,4.66,4,F,75,1,2.83174167344476,NA,NA,bad_rt
4270,111315_5,1,6,2,cup_control,cup_control,cup_foil,implicature,unambiguous,target,distractor,L,cup_control,Y,11/13/2015,12:29:00,0.077,4.66,4,F,75,1,-2.563949857128453,NA,NA,bad_rt
4280,111315_5,1,6,7,bicycle_pos,bicycle_pos,bicycle_neg,negation,positive,target,distractor,L,bicycle_pos,Y,11/13/2015,12:29:00,19.095,4.66,4,F,75,1,2.9494265206774797,NA,NA,bad_rt
4287,111315_5,1,6,43,flower_implic,flower_implic,flower_control,implicature,implicature,target,distractor,L,flower_implic,Y,11/13/2015,12:29:00,12.577,4.66,4,F,75,1,2.5318697490650184,NA,NA,bad_rt
4647,111315_8,2,4,1,cat_implic,cat_implic,cat_control,implicature,implicature,target,distractor,L,cat_implic,Y,11/13/2015,14:33:00,13.535,4.58,4,F,75,1,2.6052789230662645,NA,NA,bad_rt
4649,111315_8,2,4,2,bicycle_control,bicycle_control,bicycle_foil,implicature,unambiguous,target,distractor,L,bicycle_control,Y,11/13/2015,14:33:00,11.119,4.58,4,F,75,1,2.408655356721112,NA,NA,bad_rt
5013,111515_1,1,6,56,bird_control,bird_control,bird_foil,implicature,unambiguous,target,distractor,R,bird_foil,N,11/15/2015,12:16:00,0.043,5.32,5,F,100,0,-3.146555163288575,NA,NA,bad_rt
5014,111515_1,1,6,57,teddybear_control,teddybear_control,teddybear_foil,implicature,unambiguous,target,distractor,R,teddybear_foil,N,11/15/2015,12:16:00,0.045,5.32,5,F,100,0,-3.101092789211817,NA,NA,bad_rt
5075,111515_2,2,4,33,flower_inhib,flower_pos,flower_inhib,inhibition,inhib,distractor,target,L,flower_pos,N,11/15/2015,12:38:00,0.043,4.64,4,F,75,0,-3.146555163288575,NA,NA,bad_rt
5083,111515_2,2,4,35,cat_pos,cat_inhib,cat_pos,inhibition,control,distractor,target,L,cat_inhib,N,11/15/2015,12:38:00,0.047,4.64,4,F,75,0,-3.0576076772720784,NA,NA,bad_rt
5121,111515_2,2,4,34,cat_pos,cat_pos,cat_inhib,inhibition,control,target,distractor,L,cat_pos,Y,11/15/2015,12:38:00,0.043,4.64,4,F,75,1,-3.146555163288575,NA,NA,bad_rt
5177,111515_2,2,4,30,apple_pos,apple_neg,apple_pos,negation,positive,distractor,target,R,apple_pos,Y,11/15/2015,12:38:00,0.059,4.64,4,F,75,1,-2.8302178350764176,NA,NA,bad_rt
5261,111515_2,2,4,7,banana_neg,banana_neg,banana_pos,negation,negative,target,distractor,L,banana_neg,Y,11/15/2015,12:38:00,0.07000000000000099,4.64,4,F,75,1,-2.6592600369327637,NA,NA,bad_rt
5284,111515_3,1,1,55,cookie_pos,cookie_pos,cookie_inhib,inhibition,control,target,distractor,R,cookie_inhib,N,11/15/2015,12:58:00,27.172,5.95,5,F,75,0,3.3021870313290553,NA,NA,bad_rt
5288,111515_3,1,1,28,banana_pos,banana_inhib,banana_pos,inhibition,control,distractor,target,R,banana_pos,Y,11/15/2015,12:58:00,0.009,5.95,5,F,75,1,-4.710530701645918,NA,NA,bad_rt
5322,111515_3,1,1,20,teddybear_pos,teddybear_pos,teddybear_inhib,inhibition,control,target,distractor,R,teddybear_inhib,N,11/15/2015,12:58:00,0.11,5.95,5,F,75,0,-2.2072749131897207,NA,NA,bad_rt
5332,111515_3,1,1,30,banana_pos,banana_inhib,banana_pos,inhibition,control,distractor,target,L,banana_inhib,N,11/15/2015,12:58:00,0.159,5.95,5,F,75,0,-1.8388510767619055,NA,NA,bad_rt
5333,111515_3,1,1,32,bicycle_pos,bicycle_pos,bicycle_inhib,inhibition,control,target,distractor,L,bicycle_pos,Y,11/15/2015,12:58:00,0.147,5.95,5,F,75,1,-1.9173226922034008,NA,NA,bad_rt
5527,111515_4,2,5,58,apple_implic,apple_control,apple_implic,implicature,implicature,distractor,target,R,apple_implic,Y,11/15/2015,12:59:00,0.066,4.41,4,F,100,1,-2.7181005369557116,NA,NA,bad_rt
5556,111515_4,2,5,5,bird_control,bird_control,bird_foil,implicature,unambiguous,target,distractor,R,bird_foil,N,11/15/2015,12:59:00,0.039,4.41,4,F,100,0,-3.2441936328524905,NA,NA,bad_rt
5590,111515_4,2,5,13,apple_pos,apple_pos,apple_neg,negation,positive,target,distractor,R,apple_neg,N,11/15/2015,12:59:00,0.049,4.41,4,F,100,0,-3.0159349808715104,NA,NA,bad_rt
5865,111515_7,1,1,4,cookie_neg,cookie_neg,cookie_pos,negation,negative,target,distractor,L,cookie_neg,Y,11/15/2015,15:58:00,11.074,6.41,6,F,100,1,2.4046000184007754,NA,NA,bad_rt
5987,111515_7,1,1,44,bicycle_implic,bicycle_control,bicycle_implic,implicature,implicature,distractor,target,L,bicycle_control,N,11/15/2015,15:58:00,11.874,6.41,6,F,100,0,2.4743511358484835,NA,NA,bad_rt
6002,111515_7,1,1,46,cat_inhib,cat_inhib,cat_pos,inhibition,inhib,target,distractor,R,cat_pos,N,11/15/2015,15:58:00,12.225,6.41,6,F,100,0,2.5034830353609356,NA,NA,bad_rt
6028,111515_7,1,1,45,cat_pos,cat_pos,cat_inhib,inhibition,control,target,distractor,L,cat_pos,Y,11/15/2015,15:58:00,0.179,6.41,6,F,100,1,-1.7203694731413821,NA,NA,bad_rt
6258,111715_1,1,4,2,cup_control,cup_control,cup_foil,implicature,unambiguous,target,distractor,L,cup_control,Y,11/17/2015,13:26:00,12.169,4.49,4,M,100,1,2.498891734354663,NA,NA,bad_rt
6259,111715_1,1,4,5,cookie_implic,cookie_implic,cookie_control,implicature,implicature,target,distractor,R,cookie_control,N,11/17/2015,13:26:00,40.607,4.49,4,M,100,0,3.7039404655392407,NA,NA,bad_rt
6264,111715_1,1,4,6,teddybear_implic,teddybear_control,teddybear_implic,implicature,implicature,distractor,target,R,teddybear_implic,Y,11/17/2015,13:26:00,16.369,4.49,4,M,100,1,2.7953893021622176,NA,NA,bad_rt
6328,111715_2,2,1,18,lamp_pos,lamp_inhib,lamp_pos,inhibition,control,distractor,target,L,lamp_inhib,N,11/17/2015,14:02:00,0.039,4.39,4,M,95,0,-3.2441936328524905,NA,NA,bad_rt
6404,111715_2,2,1,45,cat_pos,cat_pos,cat_neg,negation,positive,target,distractor,L,cat_pos,Y,11/17/2015,14:02:00,0.061,4.39,4,M,95,1,-2.796881414808826,NA,NA,bad_rt
6441,111715_2,2,1,47,dog_control,dog_control,dog_foil,implicature,unambiguous,target,distractor,L,dog_control,Y,11/17/2015,14:02:00,0.015,4.39,4,M,95,1,-4.199705077879927,NA,NA,bad_rt
6465,111715_2,2,1,17,bicycle_implic,bicycle_implic,bicycle_control,implicature,implicature,target,distractor,R,bicycle_control,N,11/17/2015,14:02:00,18.74,4.39,4,M,95,0,2.930660276810276,NA,NA,bad_rt
6482,111715_2,2,1,48,bicycle_implic,bicycle_control,bicycle_implic,implicature,implicature,distractor,target,L,bicycle_control,N,11/17/2015,14:02:00,15.448,4.39,4,M,95,0,2.7374795451262135,NA,NA,bad_rt
6496,111715_2,2,1,2,flower_neg,flower_pos,flower_neg,negation,negative,distractor,target,R,flower_neg,Y,11/17/2015,14:02:00,10.43,4.39,4,M,95,1,2.344686269012681,NA,NA,bad_rt
6545,111715_4,2,1,77,apple_pos,apple_inhib,apple_pos,inhibition,control,distractor,target,R,apple_pos,Y,11/17/2015,14:42:00,0.1,5.56,5,F,95,1,-2.3025850929940455,NA,NA,bad_rt
6547,111715_4,2,1,24,cookie_pos,cookie_inhib,cookie_pos,inhibition,control,distractor,target,R,cookie_pos,Y,11/17/2015,14:42:00,0.154,5.56,5,F,95,1,-1.870802676568508,NA,NA,bad_rt
6548,111715_4,2,1,26,cookie_pos,cookie_inhib,cookie_pos,inhibition,control,distractor,target,L,cookie_inhib,N,11/17/2015,14:42:00,0.021,5.56,5,F,95,0,-3.863232841258714,NA,NA,bad_rt
6562,111715_4,2,1,27,cookie_inhib,cookie_inhib,cookie_pos,inhibition,inhib,target,distractor,L,cookie_inhib,Y,11/17/2015,14:42:00,0.016,5.56,5,F,95,1,-4.135166556742356,NA,NA,bad_rt
6713,111815_2,2,6,14,cookie_pos,cookie_neg,cookie_pos,negation,positive,distractor,target,L,cookie_neg,N,11/18/2015,13:58:00,11.189,4.99,4,M,100,0,2.414931152825584,NA,NA,bad_rt
6741,111815_2,2,6,13,apple_neg,apple_neg,apple_pos,negation,negative,target,distractor,L,apple_neg,Y,11/18/2015,13:58:00,20.944,4.99,4,M,100,1,3.041852209167544,NA,NA,bad_rt
6778,111815_2,2,6,21,cookie_pos,cookie_inhib,cookie_pos,inhibition,control,distractor,target,L,cookie_inhib,N,11/18/2015,13:58:00,0.139,4.99,4,M,100,0,-1.973281345851445,NA,NA,bad_rt
6920,111815_4,2,1,28,flower_pos,flower_pos,flower_inhib,inhibition,control,target,distractor,R,flower_inhib,N,11/18/2015,14:13:00,0.166,6.1,6,M,95,0,-1.7957674906255938,NA,NA,bad_rt
7133,111815_5,1,1,9,lamp_control,lamp_control,lamp_foil,implicature,unambiguous,target,distractor,L,lamp_control,Y,11/18/2015,14:40:00,0.048,6.1,6,M,95,1,-3.036554268074246,NA,NA,bad_rt
7565,111915_3,1,5,12,banana_pos,banana_pos,banana_neg,negation,positive,target,distractor,R,banana_neg,N,11/19/2015,14:15:00,16.184,5.36,5,F,100,0,2.7840230998654443,NA,NA,bad_rt
7665,112015_1,1,2,19,apple_control,apple_foil,apple_control,implicature,unambiguous,distractor,target,R,apple_control,Y,11/20/2015,10:59:00,0.045,4.79,4,F,100,1,-3.101092789211817,NA,NA,bad_rt
7742,112015_1,1,2,1,banana_control,banana_foil,banana_control,implicature,unambiguous,distractor,target,R,banana_control,Y,11/20/2015,10:59:00,10.459,4.79,4,F,100,1,2.347462851772131,NA,NA,bad_rt
7795,112015_1,1,2,1,apple_pos,apple_pos,apple_inhib,inhibition,control,target,distractor,R,apple_inhib,N,11/20/2015,10:59:00,0.131,4.79,4,F,100,0,-2.0325579557809856,NA,NA,bad_rt
7841,112015_11,1,4,45,teddybear_control,teddybear_foil,teddybear_control,implicature,unambiguous,distractor,target,L,teddybear_foil,N,11/20/2015,15:38:00,0.044,5.32,5,F,100,0,-3.123565645063876,NA,NA,bad_rt
7846,112015_11,1,4,4,cookie_neg,cookie_neg,cookie_pos,negation,negative,target,distractor,R,cookie_pos,N,11/20/2015,15:38:00,0.0240000000000005,5.32,5,F,100,0,-3.7297014486341706,NA,NA,bad_rt
7858,112015_11,1,4,44,bicycle_control,bicycle_foil,bicycle_control,implicature,unambiguous,distractor,target,L,bicycle_foil,N,11/20/2015,15:38:00,0.045,5.32,5,F,100,0,-3.101092789211817,NA,NA,bad_rt
7865,112015_11,1,4,7,bicycle_neg,bicycle_neg,bicycle_pos,negation,negative,target,distractor,L,bicycle_neg,Y,11/20/2015,15:38:00,0.0300000000000008,5.32,5,F,100,1,-3.506557897319955,NA,NA,bad_rt
7868,112015_11,1,4,8,lamp_neg,lamp_pos,lamp_neg,negation,negative,distractor,target,L,lamp_pos,N,11/20/2015,15:38:00,0.0379999999999973,5.32,5,F,100,0,-3.270169119255822,NA,NA,bad_rt
7879,112015_11,1,4,15,dog_pos,dog_inhib,dog_pos,inhibition,control,distractor,target,L,dog_inhib,N,11/20/2015,15:38:00,0.043,5.32,5,F,100,0,-3.146555163288575,NA,NA,bad_rt
7936,112015_11,1,4,16,dog_pos,dog_pos,dog_inhib,inhibition,control,target,distractor,L,dog_pos,Y,11/20/2015,15:38:00,0.047,5.32,5,F,100,1,-3.0576076772720784,NA,NA,bad_rt
7964,112015_11,1,4,3,apple_pos,apple_inhib,apple_pos,inhibition,control,distractor,target,L,apple_inhib,N,11/20/2015,15:38:00,0.048,5.32,5,F,100,0,-3.036554268074246,NA,NA,bad_rt
7985,112015_11,1,4,37,cookie_control,cookie_foil,cookie_control,implicature,unambiguous,distractor,target,L,cookie_foil,N,11/20/2015,15:38:00,0.043,5.32,5,F,100,0,-3.146555163288575,NA,NA,bad_rt
7997,112015_11,1,4,38,bird_control,bird_foil,bird_control,implicature,unambiguous,distractor,target,L,bird_foil,N,11/20/2015,15:38:00,0.044,5.32,5,F,100,0,-3.123565645063876,NA,NA,bad_rt
8005,112015_11,1,4,4,apple_pos,apple_inhib,apple_pos,inhibition,control,distractor,target,L,apple_inhib,N,11/20/2015,15:38:00,0.047,5.32,5,F,100,0,-3.0576076772720784,NA,NA,bad_rt
8007,112015_11,1,4,23,banana_pos,banana_neg,banana_pos,negation,positive,distractor,target,L,banana_neg,N,11/20/2015,15:38:00,0.044,5.32,5,F,100,0,-3.123565645063876,NA,NA,bad_rt
8012,112015_11,1,4,26,banana_neg,banana_pos,banana_neg,negation,negative,distractor,target,L,banana_pos,N,11/20/2015,15:38:00,0.042000000000001,5.32,5,F,100,0,-3.170085660698745,NA,NA,bad_rt
8045,112015_3,1,5,26,banana_pos,banana_neg,banana_pos,negation,positive,distractor,target,L,banana_neg,N,11/20/2015,12:26:00,0.066,6.6,6,F,100,0,-2.7181005369557116,NA,NA,bad_rt
8087,112015_3,1,5,4,apple_pos,apple_pos,apple_inhib,inhibition,control,target,distractor,R,apple_inhib,N,11/20/2015,12:26:00,0.137,6.6,6,F,100,0,-1.987774353154012,NA,NA,bad_rt
8095,112015_3,1,5,42,cat_pos,cat_inhib,cat_pos,inhibition,control,distractor,target,R,cat_pos,Y,11/20/2015,12:26:00,0.049,6.6,6,F,100,1,-3.0159349808715104,NA,NA,bad_rt
8109,112015_3,1,5,41,cat_pos,cat_pos,cat_inhib,inhibition,control,target,distractor,R,cat_inhib,N,11/20/2015,12:26:00,0.048,6.6,6,F,100,0,-3.036554268074246,NA,NA,bad_rt
8127,112015_3,1,5,2,apple_pos,apple_pos,apple_inhib,inhibition,control,target,distractor,R,apple_inhib,N,11/20/2015,12:26:00,0.071,6.6,6,F,100,0,-2.645075401940822,NA,NA,bad_rt
8247,112015_4,2,4,56,cookie_control,cookie_foil,cookie_control,implicature,unambiguous,distractor,target,L,cookie_foil,N,11/20/2015,12:34:00,0.046,4.51,4,F,100,0,-3.079113882493042,NA,NA,bad_rt
8264,112015_4,2,4,42,apple_implic,apple_implic,apple_control,implicature,implicature,target,distractor,R,apple_control,N,11/20/2015,12:34:00,0.047,4.51,4,F,100,0,-3.0576076772720784,NA,NA,bad_rt
8272,112015_4,2,4,48,bicycle_implic,bicycle_implic,bicycle_control,implicature,implicature,target,distractor,R,bicycle_control,N,11/20/2015,12:34:00,0.05,4.51,4,F,100,0,-2.995732273553991,NA,NA,bad_rt
8274,112015_4,2,4,45,bird_control,bird_foil,bird_control,implicature,unambiguous,distractor,target,R,bird_control,Y,11/20/2015,12:34:00,0.048,4.51,4,F,100,1,-3.036554268074246,NA,NA,bad_rt
8276,112015_4,2,4,44,cat_control,cat_foil,cat_control,implicature,unambiguous,distractor,target,R,cat_control,Y,11/20/2015,12:34:00,0.043,4.51,4,F,100,1,-3.146555163288575,NA,NA,bad_rt
8281,112015_4,2,4,46,flower_implic,flower_implic,flower_control,implicature,implicature,target,distractor,R,flower_control,N,11/20/2015,12:34:00,0.047,4.51,4,F,100,0,-3.0576076772720784,NA,NA,bad_rt
8282,112015_4,2,4,47,dog_implic,dog_control,dog_implic,implicature,implicature,distractor,target,R,dog_implic,Y,11/20/2015,12:34:00,0.042,4.51,4,F,100,1,-3.170085660698769,NA,NA,bad_rt
8287,112015_4,2,4,43,cookie_implic,cookie_control,cookie_implic,implicature,implicature,distractor,target,R,cookie_implic,Y,11/20/2015,12:34:00,0.046,4.51,4,F,100,1,-3.079113882493042,NA,NA,bad_rt
8289,112015_4,2,4,49,bird_control,bird_control,bird_foil,implicature,unambiguous,target,distractor,R,bird_foil,N,11/20/2015,12:34:00,0.043,4.51,4,F,100,0,-3.146555163288575,NA,NA,bad_rt
8391,112015_7,1,3,58,cat_neg,cat_pos,cat_neg,negation,negative,distractor,target,R,cat_neg,Y,11/20/2015,14:18:00,0.00200000000000085,6,6,M,95,1,-6.214608098421767,NA,NA,bad_rt
8465,112015_7,1,3,4,apple_pos,apple_pos,apple_inhib,inhibition,control,target,distractor,L,apple_pos,Y,11/20/2015,14:18:00,0.007,6,6,M,95,1,-4.961845129926823,NA,NA,bad_rt
8555,112015_9,1,5,32,cup_implic,cup_control,cup_implic,implicature,implicature,distractor,target,L,cup_control,N,11/20/2015,14:44:00,0.111,6.27,6,M,100,0,-2.198225077669803,NA,NA,bad_rt
8568,112015_9,1,5,38,flower_neg,flower_neg,flower_pos,negation,negative,target,distractor,L,flower_neg,Y,11/20/2015,14:44:00,0.011000000000000499,6.27,6,M,100,1,-4.509860006183721,NA,NA,bad_rt
8752,112415_1,1,6,47,cookie_pos,cookie_pos,cookie_neg,negation,positive,target,distractor,R,cookie_neg,N,11/24/2015,12:43:00,0.079,4.9,4,M,100,0,-2.5383074265151158,NA,NA,bad_rt
8878,112415_1,1,6,21,teddybear_neg,teddybear_pos,teddybear_neg,negation,negative,distractor,target,R,teddybear_neg,Y,11/24/2015,12:43:00,0.106999999999998,4.9,4,M,100,1,-2.2349264445202497,NA,NA,bad_rt
9163,112415_5,1,4,75,cup_pos,cup_pos,cup_inhib,inhibition,control,target,distractor,R,cup_inhib,N,11/24/2015,14:40:00,0.148,6.08,6,M,100,0,-1.9105430052180221,NA,NA,bad_rt
9189,112415_5,1,4,59,lamp_pos,lamp_pos,lamp_inhib,inhibition,control,target,distractor,L,lamp_pos,Y,11/24/2015,14:40:00,0.196,6.08,6,M,100,1,-1.6296406197516198,NA,NA,bad_rt
9192,112415_5,1,4,29,banana_pos,banana_inhib,banana_pos,inhibition,control,distractor,target,R,banana_pos,Y,11/24/2015,14:40:00,0.041,6.08,6,M,100,1,-3.1941832122778293,NA,NA,bad_rt
9214,112415_5,1,4,58,cookie_inhib,cookie_pos,cookie_inhib,inhibition,inhib,distractor,target,L,cookie_pos,N,11/24/2015,14:40:00,0.111,6.08,6,M,100,0,-2.198225077669803,NA,NA,bad_rt
9220,112415_5,1,4,68,bird_pos,bird_pos,bird_inhib,inhibition,control,target,distractor,L,bird_pos,Y,11/24/2015,14:40:00,0.082,6.08,6,M,100,1,-2.501036031717884,NA,NA,bad_rt
9225,112415_5,1,4,63,lamp_pos,lamp_inhib,lamp_pos,inhibition,control,distractor,target,L,lamp_inhib,N,11/24/2015,14:40:00,0.191,6.08,6,M,100,0,-1.6554818509355071,NA,NA,bad_rt
9992,112715_2,2,2,44,banana_pos,banana_inhib,banana_pos,inhibition,control,distractor,target,R,banana_pos,Y,11/27/2015,12:04:00,0.152,6.92,6,M,95,1,-1.8838747581358606,NA,NA,bad_rt
10032,112715_3,1,5,6,teddybear_implic,teddybear_control,teddybear_implic,implicature,implicature,distractor,target,R,teddybear_implic,Y,11/27/2015,12:22:00,0.044,4.61,4,M,100,1,-3.123565645063876,NA,NA,bad_rt
10043,112715_3,1,5,49,lamp_implic,lamp_control,lamp_implic,implicature,implicature,distractor,target,R,lamp_implic,Y,11/27/2015,12:22:00,0.198,4.61,4,M,100,1,-1.6194882482876019,NA,NA,bad_rt
10214,112715_6,2,6,10,car_pos,car_neg,car_pos,negation,positive,distractor,target,L,car_neg,N,11/27/2015,12:50:00,0.173,4.42,4,M,95,0,-1.7544636844843582,NA,NA,bad_rt
10215,112715_6,2,6,22,cat_neg,cat_neg,cat_pos,negation,negative,target,distractor,R,cat_pos,N,11/27/2015,12:50:00,0.00300000000000085,4.42,4,M,95,0,-5.809142990313744,NA,NA,bad_rt
10221,112715_6,2,6,18,bicycle_neg,bicycle_pos,bicycle_neg,negation,negative,distractor,target,R,bicycle_neg,Y,11/27/2015,12:50:00,0.0280000000000008,4.42,4,M,95,1,-3.5755507688069046,NA,NA,bad_rt
10223,112715_6,2,6,25,lamp_pos,lamp_pos,lamp_neg,negation,positive,target,distractor,R,lamp_neg,N,11/27/2015,12:50:00,0.047,4.42,4,M,95,0,-3.0576076772720784,NA,NA,bad_rt
10225,112715_6,2,6,24,teddybear_pos,teddybear_neg,teddybear_pos,negation,positive,distractor,target,R,teddybear_pos,Y,11/27/2015,12:50:00,0.047,4.42,4,M,95,1,-3.0576076772720784,NA,NA,bad_rt
10226,112715_6,2,6,9,apple_pos,apple_pos,apple_neg,negation,positive,target,distractor,L,apple_pos,Y,11/27/2015,12:50:00,0.044,4.42,4,M,95,1,-3.123565645063876,NA,NA,bad_rt
10228,112715_6,2,6,13,apple_neg,apple_pos,apple_neg,negation,negative,distractor,target,L,apple_pos,N,11/27/2015,12:50:00,0.110999999999998,4.42,4,M,95,0,-2.198225077669821,NA,NA,bad_rt
10229,112715_6,2,6,14,cookie_pos,cookie_neg,cookie_pos,negation,positive,distractor,target,R,cookie_pos,Y,11/27/2015,12:50:00,0.023,4.42,4,M,95,1,-3.7722610630529876,NA,NA,bad_rt
10237,112715_6,2,6,26,flower_pos,flower_pos,flower_neg,negation,positive,target,distractor,R,flower_neg,N,11/27/2015,12:50:00,0.042,4.42,4,M,95,0,-3.170085660698769,NA,NA,bad_rt
10238,112715_6,2,6,23,flower_neg,flower_neg,flower_pos,negation,negative,target,distractor,R,flower_pos,N,11/27/2015,12:50:00,0.0020000000000005096,4.42,4,M,95,0,-6.2146080984219365,NA,NA,bad_rt
10247,112715_6,2,6,8,dog_pos,dog_pos,dog_neg,negation,positive,target,distractor,L,dog_pos,Y,11/27/2015,12:50:00,0.046,4.42,4,M,95,1,-3.079113882493042,NA,NA,bad_rt
10249,112715_6,2,6,37,car_neg,car_pos,car_neg,negation,negative,distractor,target,L,car_pos,N,11/27/2015,12:50:00,0.0339999999999995,4.42,4,M,95,0,-3.3813947543659904,NA,NA,bad_rt
10253,112715_6,2,6,12,cup_neg,cup_pos,cup_neg,negation,negative,distractor,target,L,cup_pos,N,11/27/2015,12:50:00,0.0420000000000007,4.42,4,M,95,0,-3.170085660698752,NA,NA,bad_rt
10257,112715_6,2,6,34,cat_neg,cat_neg,cat_pos,negation,negative,target,distractor,R,cat_pos,N,11/27/2015,12:50:00,0.00700000000000085,4.42,4,M,95,0,-4.961845129926703,NA,NA,bad_rt
10264,112715_6,2,6,38,banana_neg,banana_pos,banana_neg,negation,negative,distractor,target,L,banana_pos,N,11/27/2015,12:50:00,0.046000000000001,4.42,4,M,95,0,-3.0791138824930204,NA,NA,bad_rt
10265,112715_6,2,6,11,teddybear_neg,teddybear_pos,teddybear_neg,negation,negative,distractor,target,R,teddybear_neg,Y,11/27/2015,12:50:00,0.060999999999997695,4.42,4,M,95,1,-2.7968814148088637,NA,NA,bad_rt
10268,112715_6,2,6,39,dog_pos,dog_pos,dog_neg,negation,positive,target,distractor,L,dog_pos,Y,11/27/2015,12:50:00,0.042,4.42,4,M,95,1,-3.170085660698769,NA,NA,bad_rt
10327,112915_1,1,5,40,car_neg,car_neg,car_pos,negation,negative,target,distractor,L,car_neg,Y,12/1/2015,13:20:00,0.0399999999999995,4.78,4,F,75,1,-3.218875824868213,NA,NA,bad_rt
10328,112915_1,1,5,41,lamp_pos,lamp_neg,lamp_pos,negation,positive,distractor,target,L,lamp_neg,N,12/1/2015,13:20:00,0.046,4.78,4,F,75,0,-3.079113882493042,NA,NA,bad_rt
10336,112915_1,1,5,57,teddybear_control,teddybear_control,teddybear_foil,implicature,unambiguous,target,distractor,L,teddybear_control,Y,12/1/2015,13:20:00,0.192,4.78,4,F,75,1,-1.6502599069543555,NA,NA,bad_rt
10354,112915_1,1,5,50,teddybear_pos,teddybear_neg,teddybear_pos,negation,positive,distractor,target,L,teddybear_neg,N,12/1/2015,13:20:00,0.043,4.78,4,F,75,0,-3.146555163288575,NA,NA,bad_rt
10364,112915_1,1,5,51,car_pos,car_neg,car_pos,negation,positive,distractor,target,L,car_neg,N,12/1/2015,13:20:00,0.045,4.78,4,F,75,0,-3.101092789211817,NA,NA,bad_rt
10597,11315_3,1,5,44,cat_pos,cat_inhib,cat_pos,inhibition,control,distractor,target,R,cat_pos,Y,11/3/2015,13:45:00,0.05,5.58,5,M,95,1,-2.995732273553991,NA,NA,bad_rt
10601,11315_3,1,5,18,cookie_control,cookie_control,cookie_foil,implicature,unambiguous,target,distractor,R,cookie_foil,N,11/3/2015,13:45:00,0.112,5.58,5,M,95,0,-2.1892564076870427,NA,NA,bad_rt
10602,11315_3,1,5,51,flower_implic,flower_implic,flower_control,implicature,implicature,target,distractor,L,flower_implic,Y,11/3/2015,13:45:00,0.077,5.58,5,M,95,1,-2.563949857128453,NA,NA,bad_rt
10608,11315_3,1,5,42,cat_pos,cat_inhib,cat_pos,inhibition,control,distractor,target,R,cat_pos,Y,11/3/2015,13:45:00,0.047,5.58,5,M,95,1,-3.0576076772720784,NA,NA,bad_rt
10612,11315_3,1,5,62,lamp_pos,lamp_inhib,lamp_pos,inhibition,control,distractor,target,R,lamp_pos,Y,11/3/2015,13:45:00,0.039,5.58,5,M,95,1,-3.2441936328524905,NA,NA,bad_rt
10613,11315_3,1,5,63,lamp_pos,lamp_pos,lamp_inhib,inhibition,control,target,distractor,L,lamp_pos,Y,11/3/2015,13:45:00,0.108,5.58,5,M,95,1,-2.2256240518579173,NA,NA,bad_rt
10620,11315_3,1,5,41,cat_pos,cat_pos,cat_inhib,inhibition,control,target,distractor,R,cat_inhib,N,11/3/2015,13:45:00,0.024,5.58,5,M,95,0,-3.7297014486341915,NA,NA,bad_rt
10622,11315_3,1,5,43,cat_pos,cat_pos,cat_inhib,inhibition,control,target,distractor,R,cat_inhib,N,11/3/2015,13:45:00,0.058,5.58,5,M,95,0,-2.8473122684357177,NA,NA,bad_rt
10623,11315_3,1,5,14,bicycle_pos,bicycle_neg,bicycle_pos,negation,positive,distractor,target,L,bicycle_neg,N,11/3/2015,13:45:00,13.48,5.58,5,M,95,0,2.601207105484161,NA,NA,bad_rt
10625,11315_3,1,5,76,cup_pos,cup_inhib,cup_pos,inhibition,control,distractor,target,R,cup_pos,Y,11/3/2015,13:45:00,0.159,5.58,5,M,95,1,-1.8388510767619055,NA,NA,bad_rt
10626,11315_3,1,5,77,cup_inhib,cup_inhib,cup_pos,inhibition,inhib,target,distractor,R,cup_pos,N,11/3/2015,13:45:00,0.163,5.58,5,M,95,0,-1.8140050781753747,NA,NA,bad_rt
10654,11315_3,1,5,64,lamp_pos,lamp_pos,lamp_inhib,inhibition,control,target,distractor,R,lamp_inhib,N,11/3/2015,13:45:00,0.066,5.58,5,M,95,0,-2.7181005369557116,NA,NA,bad_rt
10674,11315_3,1,5,40,bicycle_inhib,bicycle_inhib,bicycle_pos,inhibition,inhib,target,distractor,L,bicycle_inhib,Y,11/3/2015,13:45:00,0.02,5.58,5,M,95,1,-3.912023005428146,NA,NA,bad_rt
10695,11315_3,1,5,65,lamp_inhib,lamp_pos,lamp_inhib,inhibition,inhib,distractor,target,R,lamp_inhib,Y,11/3/2015,13:45:00,0.028,5.58,5,M,95,1,-3.575550768806933,NA,NA,bad_rt
10701,11315_3,1,5,39,bicycle_pos,bicycle_pos,bicycle_inhib,inhibition,control,target,distractor,R,bicycle_inhib,N,11/3/2015,13:45:00,0.037,5.58,5,M,95,0,-3.2968373663379125,NA,NA,bad_rt
10702,11315_3,1,5,57,cookie_pos,cookie_pos,cookie_inhib,inhibition,control,target,distractor,L,cookie_pos,Y,11/3/2015,13:45:00,0.05,5.58,5,M,95,1,-2.995732273553991,NA,NA,bad_rt
10703,11315_3,1,5,56,cookie_pos,cookie_inhib,cookie_pos,inhibition,control,distractor,target,L,cookie_inhib,N,11/3/2015,13:45:00,0.014,5.58,5,M,95,0,-4.268697949366879,NA,NA,bad_rt
10714,11315_3,1,5,55,cookie_pos,cookie_inhib,cookie_pos,inhibition,control,distractor,target,R,cookie_pos,Y,11/3/2015,13:45:00,0.174,5.58,5,M,95,1,-1.7486999797676082,NA,NA,bad_rt
10717,11315_3,1,5,58,cookie_pos,cookie_inhib,cookie_pos,inhibition,control,distractor,target,L,cookie_inhib,N,11/3/2015,13:45:00,0.018,5.58,5,M,95,0,-4.017383521085972,NA,NA,bad_rt
10718,11315_3,1,5,59,cookie_inhib,cookie_pos,cookie_inhib,inhibition,inhib,distractor,target,R,cookie_inhib,Y,11/3/2015,13:45:00,0.026,5.58,5,M,95,1,-3.649658740960655,NA,NA,bad_rt
10719,11315_3,1,5,45,cat_pos,cat_pos,cat_inhib,inhibition,control,target,distractor,R,cat_inhib,N,11/3/2015,13:45:00,0.071,5.58,5,M,95,0,-2.645075401940822,NA,NA,bad_rt
10725,11315_3,1,5,53,cookie_pos,cookie_pos,cookie_inhib,inhibition,control,target,distractor,R,cookie_inhib,N,11/3/2015,13:45:00,0.131,5.58,5,M,95,0,-2.0325579557809856,NA,NA,bad_rt
10732,11315_3,1,5,60,lamp_pos,lamp_inhib,lamp_pos,inhibition,control,distractor,target,R,lamp_pos,Y,11/3/2015,13:45:00,0.005,5.58,5,M,95,1,-5.298317366548036,NA,NA,bad_rt
10734,11315_3,1,5,21,teddybear_pos,teddybear_inhib,teddybear_pos,inhibition,control,distractor,target,R,teddybear_pos,Y,11/3/2015,13:45:00,0.01,5.58,5,M,95,1,-4.605170185988091,NA,NA,bad_rt
10738,11315_3,1,5,22,teddybear_pos,teddybear_inhib,teddybear_pos,inhibition,control,distractor,target,R,teddybear_pos,Y,11/3/2015,13:45:00,0.193,5.58,5,M,95,1,-1.6450650900772514,NA,NA,bad_rt
10741,11315_3,1,5,24,teddybear_pos,teddybear_inhib,teddybear_pos,inhibition,control,distractor,target,R,teddybear_pos,Y,11/3/2015,13:45:00,0.033,5.58,5,M,95,1,-3.4112477175156566,NA,NA,bad_rt
10745,11315_3,1,5,31,banana_pos,banana_inhib,banana_pos,inhibition,control,distractor,target,R,banana_pos,Y,11/3/2015,13:45:00,0.033,5.58,5,M,95,1,-3.4112477175156566,NA,NA,bad_rt
10746,11315_3,1,5,32,banana_pos,banana_inhib,banana_pos,inhibition,control,distractor,target,R,banana_pos,Y,11/3/2015,13:45:00,0.006,5.58,5,M,95,1,-5.115995809754082,NA,NA,bad_rt
10747,11315_3,1,5,33,banana_inhib,banana_pos,banana_inhib,inhibition,inhib,distractor,target,R,banana_inhib,Y,11/3/2015,13:45:00,0.01,5.58,5,M,95,1,-4.605170185988091,NA,NA,bad_rt
10749,11315_3,1,5,46,cat_inhib,cat_inhib,cat_pos,inhibition,inhib,target,distractor,R,cat_pos,N,11/3/2015,13:45:00,0.054,5.58,5,M,95,0,-2.9187712324178627,NA,NA,bad_rt
10750,11315_3,1,5,47,flower_pos,flower_inhib,flower_pos,inhibition,control,distractor,target,R,flower_pos,Y,11/3/2015,13:45:00,0.107,5.58,5,M,95,1,-2.234926444520231,NA,NA,bad_rt
10758,11315_3,1,5,18,dog_pos,dog_inhib,dog_pos,inhibition,control,distractor,target,L,dog_inhib,N,11/3/2015,13:45:00,0.027,5.58,5,M,95,0,-3.611918412977808,NA,NA,bad_rt
10759,11315_3,1,5,19,dog_inhib,dog_pos,dog_inhib,inhibition,inhib,distractor,target,R,dog_inhib,Y,11/3/2015,13:45:00,0.181,5.58,5,M,95,1,-1.7092582477163114,NA,NA,bad_rt
10762,11315_3,1,5,34,bicycle_pos,bicycle_inhib,bicycle_pos,inhibition,control,distractor,target,R,bicycle_pos,Y,11/3/2015,13:45:00,0.033,5.58,5,M,95,1,-3.4112477175156566,NA,NA,bad_rt
10763,11315_3,1,5,35,bicycle_pos,bicycle_inhib,bicycle_pos,inhibition,control,distractor,target,R,bicycle_pos,Y,11/3/2015,13:45:00,0.071,5.58,5,M,95,1,-2.645075401940822,NA,NA,bad_rt
10766,11315_3,1,5,23,teddybear_pos,teddybear_pos,teddybear_inhib,inhibition,control,target,distractor,R,teddybear_inhib,N,11/3/2015,13:45:00,0.052,5.58,5,M,95,0,-2.9565115604007097,NA,NA,bad_rt
10767,11315_3,1,5,29,banana_pos,banana_inhib,banana_pos,inhibition,control,distractor,target,R,banana_pos,Y,11/3/2015,13:45:00,0.028,5.58,5,M,95,1,-3.575550768806933,NA,NA,bad_rt
10768,11315_3,1,5,50,flower_pos,flower_pos,flower_inhib,inhibition,control,target,distractor,R,flower_inhib,N,11/3/2015,13:45:00,0.057,5.58,5,M,95,0,-2.864704011147587,NA,NA,bad_rt
10770,11315_3,1,5,26,teddybear_inhib,teddybear_pos,teddybear_inhib,inhibition,inhib,distractor,target,R,teddybear_inhib,Y,11/3/2015,13:45:00,0.026,5.58,5,M,95,1,-3.649658740960655,NA,NA,bad_rt
10771,11315_3,1,5,38,bicycle_pos,bicycle_inhib,bicycle_pos,inhibition,control,distractor,target,R,bicycle_pos,Y,11/3/2015,13:45:00,0.029,5.58,5,M,95,1,-3.540459448995663,NA,NA,bad_rt
10772,11315_3,1,5,30,banana_pos,banana_inhib,banana_pos,inhibition,control,distractor,target,R,banana_pos,Y,11/3/2015,13:45:00,0.035,5.58,5,M,95,1,-3.3524072174927233,NA,NA,bad_rt
10773,11315_3,1,5,20,teddybear_pos,teddybear_inhib,teddybear_pos,inhibition,control,distractor,target,R,teddybear_pos,Y,11/3/2015,13:45:00,0.002,5.58,5,M,95,1,-6.214608098422191,NA,NA,bad_rt
