"","subid","list","game.order","trial.num","word","leftpic","rightpic","game","trial.type","leftpic.type","rightpic.type","side.chosen","pic.chosen","response","date","timestamp","rt"
"1","072715-01",1,6,1,"dog_pos","dog_pos","dog_neg","negation","positive","target","distractor","L","dog_pos","Y","7/27/2015","9:22",3665
"2","072715-01",1,6,2,"cat_neg","cat_neg","cat_pos","negation","negative","target","distractor","R","cat_pos","N","7/27/2015","9:22",2313
"3","072715-01",1,6,3,"teddybear_pos","teddybear_neg","teddybear_pos","negation","positive","distractor","target","R","teddybear_pos","Y","7/27/2015","9:22",1804
"4","072715-01",1,6,4,"cookie_pos","cookie_pos","cookie_neg","negation","positive","target","distractor","L","cookie_pos","Y","7/27/2015","9:22",1576
"5","072715-01",1,6,5,"car_pos","car_pos","car_neg","negation","positive","target","distractor","L","car_pos","Y","7/27/2015","9:22",1464
"6","072715-01",1,6,6,"cup_neg","cup_neg","cup_pos","negation","negative","target","distractor","R","cup_pos","N","7/27/2015","9:22",2682
"7","072715-01",1,6,7,"bicycle_neg","bicycle_pos","bicycle_neg","negation","negative","distractor","target","R","bicycle_neg","Y","7/27/2015","9:22",5675
"8","072715-01",1,6,8,"lamp_neg","lamp_pos","lamp_neg","negation","negative","distractor","target","R","lamp_neg","Y","7/27/2015","9:22",2090
"9","072715-01",1,6,9,"apple_neg","apple_neg","apple_pos","negation","negative","target","distractor","L","apple_neg","Y","7/27/2015","9:22",2748
"10","072715-01",1,6,10,"bird_pos","bird_pos","bird_neg","negation","positive","target","distractor","L","bird_pos","Y","7/27/2015","9:22",1919
"11","072715-01",1,6,11,"flower_neg","flower_neg","flower_pos","negation","negative","target","distractor","L","flower_neg","Y","7/27/2015","9:22",1813
"12","072715-01",1,6,12,"banana_pos","banana_neg","banana_pos","negation","positive","distractor","target","R","banana_pos","Y","7/27/2015","9:22",1359
"13","072715-01",1,6,13,"flower_pos","flower_pos","flower_neg","negation","positive","target","distractor","L","flower_pos","Y","7/27/2015","9:22",1546
"14","072715-01",1,6,14,"bicycle_pos","bicycle_neg","bicycle_pos","negation","positive","distractor","target","R","bicycle_pos","Y","7/27/2015","9:22",1378
"15","072715-01",1,6,15,"cookie_neg","cookie_neg","cookie_pos","negation","negative","target","distractor","L","cookie_neg","Y","7/27/2015","9:22",2472
"16","072715-01",1,6,16,"cat_pos","cat_neg","cat_pos","negation","positive","distractor","target","R","cat_pos","Y","7/27/2015","9:22",1527
"17","072715-01",1,6,17,"lamp_pos","lamp_neg","lamp_pos","negation","positive","distractor","target","R","lamp_pos","Y","7/27/2015","9:22",1250
"18","072715-01",1,6,18,"apple_pos","apple_pos","apple_neg","negation","positive","target","distractor","L","apple_pos","Y","7/27/2015","9:22",1397
"19","072715-01",1,6,19,"bird_neg","bird_neg","bird_pos","negation","negative","target","distractor","L","bird_neg","Y","7/27/2015","9:22",1971
"20","072715-01",1,6,20,"cup_pos","cup_neg","cup_pos","negation","positive","distractor","target","R","cup_pos","Y","7/27/2015","9:22",1433
"21","072715-01",1,6,21,"teddybear_neg","teddybear_pos","teddybear_neg","negation","negative","distractor","target","R","teddybear_neg","Y","7/27/2015","9:22",1283
"22","072715-01",1,6,22,"dog_pos","dog_neg","dog_pos","negation","positive","distractor","target","R","dog_pos","Y","7/27/2015","9:22",1428
"23","072715-01",1,6,23,"banana_pos","banana_pos","banana_neg","negation","positive","target","distractor","L","banana_pos","Y","7/27/2015","9:22",1419
"24","072715-01",1,6,24,"car_neg","car_pos","car_neg","negation","negative","distractor","target","R","car_neg","Y","7/27/2015","9:22",1285
"25","072715-01",1,6,25,"car_neg","car_pos","car_neg","negation","negative","distractor","target","R","car_neg","Y","7/27/2015","9:22",1300
"26","072715-01",1,6,26,"banana_pos","banana_pos","banana_neg","negation","positive","target","distractor","R","banana_neg","N","7/27/2015","9:22",1117
"27","072715-01",1,6,27,"cat_pos","cat_neg","cat_pos","negation","positive","distractor","target","R","cat_pos","Y","7/27/2015","9:22",1416
"28","072715-01",1,6,28,"bird_pos","bird_neg","bird_pos","negation","positive","distractor","target","R","bird_pos","Y","7/27/2015","9:22",1766
"29","072715-01",1,6,29,"teddybear_neg","teddybear_pos","teddybear_neg","negation","negative","distractor","target","R","teddybear_neg","Y","7/27/2015","9:22",1494
"30","072715-01",1,6,30,"cookie_pos","cookie_pos","cookie_neg","negation","positive","target","distractor","L","cookie_pos","Y","7/27/2015","9:22",2231
"31","072715-01",1,6,31,"apple_neg","apple_neg","apple_pos","negation","negative","target","distractor","L","apple_neg","Y","7/27/2015","9:22",1676
"32","072715-01",1,6,32,"cup_pos","cup_neg","cup_pos","negation","positive","distractor","target","R","cup_pos","Y","7/27/2015","9:22",1546
"33","072715-01",1,6,33,"dog_pos","dog_neg","dog_pos","negation","positive","distractor","target","R","dog_pos","Y","7/27/2015","9:22",1637
"34","072715-01",1,6,34,"bicycle_neg","bicycle_pos","bicycle_neg","negation","negative","distractor","target","L","bicycle_pos","N","7/27/2015","9:22",1544
"35","072715-01",1,6,35,"flower_pos","flower_pos","flower_neg","negation","positive","target","distractor","R","flower_neg","N","7/27/2015","9:22",1523
"36","072715-01",1,6,36,"lamp_neg","lamp_neg","lamp_pos","negation","negative","target","distractor","L","lamp_neg","Y","7/27/2015","9:22",1527
"37","072715-01",1,6,37,"teddybear_pos","teddybear_pos","teddybear_neg","negation","positive","target","distractor","L","teddybear_pos","Y","7/27/2015","9:22",2339
"38","072715-01",1,6,38,"flower_neg","flower_neg","flower_pos","negation","negative","target","distractor","L","flower_neg","Y","7/27/2015","9:22",2200
"39","072715-01",1,6,39,"cat_neg","cat_pos","cat_neg","negation","negative","distractor","target","R","cat_neg","Y","7/27/2015","9:22",1797
"40","072715-01",1,6,40,"car_neg","car_pos","car_neg","negation","negative","distractor","target","R","car_neg","Y","7/27/2015","9:22",1433
"41","072715-01",1,6,41,"lamp_pos","lamp_pos","lamp_neg","negation","positive","target","distractor","L","lamp_pos","Y","7/27/2015","9:22",1593
"42","072715-01",1,6,42,"cup_neg","cup_neg","cup_pos","negation","negative","target","distractor","L","cup_neg","Y","7/27/2015","9:22",1542
"43","072715-01",1,6,43,"bicycle_neg","bicycle_pos","bicycle_neg","negation","negative","distractor","target","R","bicycle_neg","Y","7/27/2015","9:22",1443
"44","072715-01",1,6,44,"bird_pos","bird_pos","bird_neg","negation","positive","target","distractor","L","bird_pos","Y","7/27/2015","9:22",2049
"45","072715-01",1,6,45,"dog_neg","dog_pos","dog_neg","negation","negative","distractor","target","R","dog_neg","Y","7/27/2015","9:22",2219
"46","072715-01",1,6,46,"banana_neg","banana_pos","banana_neg","negation","negative","distractor","target","R","banana_neg","Y","7/27/2015","9:22",2294
"47","072715-01",1,6,47,"cookie_neg","cookie_neg","cookie_pos","negation","negative","target","distractor","L","cookie_neg","Y","7/27/2015","9:22",1752
"48","072715-01",1,6,48,"apple_neg","apple_neg","apple_pos","negation","negative","target","distractor","L","apple_neg","Y","7/27/2015","9:22",2343
"49","072715-01",1,6,49,"cup_neg","cup_neg","cup_pos","negation","negative","target","distractor","L","cup_neg","Y","7/27/2015","9:22",2445
"50","072715-01",1,6,50,"teddybear_pos","teddybear_pos","teddybear_neg","negation","positive","target","distractor","L","teddybear_pos","Y","7/27/2015","9:22",1552
"51","072715-01",1,6,51,"car_pos","car_neg","car_pos","negation","positive","distractor","target","R","car_pos","Y","7/27/2015","9:22",1979
"52","072715-01",1,6,52,"apple_pos","apple_pos","apple_neg","negation","positive","target","distractor","L","apple_pos","Y","7/27/2015","9:22",1923
"53","072715-01",1,6,53,"dog_neg","dog_pos","dog_neg","negation","negative","distractor","target","R","dog_neg","Y","7/27/2015","9:22",2979
"54","072715-01",1,6,54,"banana_pos","banana_pos","banana_neg","negation","positive","target","distractor","L","banana_pos","Y","7/27/2015","9:22",2380
"55","072715-01",1,6,55,"bird_neg","bird_neg","bird_pos","negation","negative","target","distractor","R","bird_pos","N","7/27/2015","9:22",1353
"56","072715-01",1,6,56,"lamp_pos","lamp_pos","lamp_neg","negation","positive","target","distractor","L","lamp_pos","Y","7/27/2015","9:22",1765
"57","072715-01",1,6,57,"bicycle_neg","bicycle_neg","bicycle_pos","negation","negative","target","distractor","L","bicycle_neg","Y","7/27/2015","9:22",2256
"58","072715-01",1,6,58,"cat_neg","cat_pos","cat_neg","negation","negative","distractor","target","R","cat_neg","Y","7/27/2015","9:22",4199
"59","072715-01",1,6,59,"flower_pos","flower_pos","flower_neg","negation","positive","target","distractor","L","flower_pos","Y","7/27/2015","9:22",2885
"60","072715-01",1,6,60,"cookie_neg","cookie_pos","cookie_neg","negation","negative","distractor","target","R","cookie_neg","Y","7/27/2015","9:22",1902
"61","072715-01",1,6,1,"banana_control","banana_control","banana_foil","implicature","unambiguous","target","distractor","L","banana_control","Y","7/27/2015","9:22",3326
"62","072715-01",1,6,2,"cup_implic","cup_implic","cup_control","implicature","implicature","target","distractor","R","cup_control","N","7/27/2015","9:22",3658
"63","072715-01",1,6,3,"apple_implic","apple_control","apple_implic","implicature","implicature","distractor","target","L","apple_control","N","7/27/2015","9:22",2377
"64","072715-01",1,6,4,"cat_implic","cat_implic","cat_control","implicature","implicature","target","distractor","R","cat_control","N","7/27/2015","9:22",2529
"65","072715-01",1,6,5,"cookie_control","cookie_control","cookie_foil","implicature","unambiguous","target","distractor","L","cookie_control","Y","7/27/2015","9:22",2097
"66","072715-01",1,6,6,"teddybear_implic","teddybear_control","teddybear_implic","implicature","implicature","distractor","target","R","teddybear_implic","Y","7/27/2015","9:22",1953
"67","072715-01",1,6,7,"dog_control","dog_foil","dog_control","implicature","unambiguous","distractor","target","R","dog_control","Y","7/27/2015","9:22",3044
"68","072715-01",1,6,8,"bicycle_control","bicycle_foil","bicycle_control","implicature","unambiguous","distractor","target","R","bicycle_control","Y","7/27/2015","9:22",2419
"69","072715-01",1,6,9,"lamp_control","lamp_foil","lamp_control","implicature","unambiguous","distractor","target","R","lamp_control","Y","7/27/2015","9:22",2636
"70","072715-01",1,6,10,"car_implic","car_control","car_implic","implicature","implicature","distractor","target","L","car_control","N","7/27/2015","9:22",3134
"71","072715-01",1,6,11,"flower_implic","flower_control","flower_implic","implicature","implicature","distractor","target","R","flower_implic","Y","7/27/2015","9:22",4419
"72","072715-01",1,6,12,"bird_control","bird_control","bird_foil","implicature","unambiguous","target","distractor","L","bird_control","Y","7/27/2015","9:22",3861
"73","072715-01",1,6,13,"bicycle_control","bicycle_foil","bicycle_control","implicature","unambiguous","distractor","target","R","bicycle_control","Y","7/27/2015","9:22",2548
"74","072715-01",1,6,14,"dog_implic","dog_control","dog_implic","implicature","implicature","distractor","target","R","dog_implic","Y","7/27/2015","9:22",3658
"75","072715-01",1,6,15,"flower_control","flower_foil","flower_control","implicature","unambiguous","distractor","target","R","flower_control","Y","7/27/2015","9:22",2747
"76","072715-01",1,6,16,"bird_implic","bird_control","bird_implic","implicature","implicature","distractor","target","R","bird_implic","Y","7/27/2015","9:22",1636
"77","072715-01",1,6,17,"cat_implic","cat_control","cat_implic","implicature","implicature","distractor","target","R","cat_implic","Y","7/27/2015","9:22",2058
"78","072715-01",1,6,18,"cookie_implic","cookie_control","cookie_implic","implicature","implicature","distractor","target","R","cookie_implic","Y","7/27/2015","9:22",1965
"79","072715-01",1,6,19,"apple_control","apple_foil","apple_control","implicature","unambiguous","distractor","target","R","apple_control","Y","7/27/2015","9:22",2158
"80","072715-01",1,6,20,"lamp_control","lamp_foil","lamp_control","implicature","unambiguous","distractor","target","R","lamp_control","Y","7/27/2015","9:22",1982
"81","072715-01",1,6,21,"banana_control","banana_foil","banana_control","implicature","unambiguous","distractor","target","R","banana_control","Y","7/27/2015","9:22",2999
"82","072715-01",1,6,22,"car_implic","car_control","car_implic","implicature","implicature","distractor","target","R","car_implic","Y","7/27/2015","9:22",2273
"83","072715-01",1,6,23,"cup_implic","cup_control","cup_implic","implicature","implicature","distractor","target","L","cup_control","N","7/27/2015","9:22",2496
"84","072715-01",1,6,24,"teddybear_control","teddybear_foil","teddybear_control","implicature","unambiguous","distractor","target","R","teddybear_control","Y","7/27/2015","9:22",2697
"85","072715-01",1,6,25,"bird_implic","bird_implic","bird_control","implicature","implicature","target","distractor","L","bird_implic","Y","7/27/2015","9:22",2239
"86","072715-01",1,6,26,"banana_control","banana_control","banana_foil","implicature","unambiguous","target","distractor","L","banana_control","Y","7/27/2015","9:22",1953
"87","072715-01",1,6,27,"apple_control","apple_foil","apple_control","implicature","unambiguous","distractor","target","R","apple_control","Y","7/27/2015","9:22",2316
"88","072715-01",1,6,28,"cat_implic","cat_control","cat_implic","implicature","implicature","distractor","target","R","cat_implic","Y","7/27/2015","9:22",2429
"89","072715-01",1,6,29,"flower_implic","flower_control","flower_implic","implicature","implicature","distractor","target","R","flower_implic","Y","7/27/2015","9:22",1636
"90","072715-01",1,6,30,"teddybear_implic","teddybear_control","teddybear_implic","implicature","implicature","distractor","target","R","teddybear_implic","Y","7/27/2015","9:22",1735
"91","072715-01",1,6,31,"bicycle_control","bicycle_foil","bicycle_control","implicature","unambiguous","distractor","target","R","bicycle_control","Y","7/27/2015","9:22",1467
"92","072715-01",1,6,32,"cup_implic","cup_implic","cup_control","implicature","implicature","target","distractor","R","cup_control","N","7/27/2015","9:22",2260
"93","072715-01",1,6,33,"car_control","car_foil","car_control","implicature","unambiguous","distractor","target","R","car_control","Y","7/27/2015","9:22",2211
"94","072715-01",1,6,34,"cookie_implic","cookie_implic","cookie_control","implicature","implicature","target","distractor","R","cookie_control","N","7/27/2015","9:22",2885
"95","072715-01",1,6,35,"lamp_control","lamp_foil","lamp_control","implicature","unambiguous","distractor","target","R","lamp_control","Y","7/27/2015","9:22",2706
"96","072715-01",1,6,36,"dog_implic","dog_control","dog_implic","implicature","implicature","distractor","target","R","dog_implic","Y","7/27/2015","9:22",2606
"97","072715-01",1,6,38,"bird_implic","bird_implic","bird_control","implicature","implicature","target","distractor","L","bird_implic","Y","7/27/2015","9:22",1885
"98","072715-01",1,6,39,"banana_implic","banana_control","banana_implic","implicature","implicature","distractor","target","L","banana_control","N","7/27/2015","9:22",1884
"99","072715-01",1,6,37,"cookie_control","cookie_control","cookie_foil","implicature","unambiguous","target","distractor","L","cookie_control","Y","7/27/2015","9:22",2300
"100","072715-01",1,6,40,"lamp_control","lamp_foil","lamp_control","implicature","unambiguous","distractor","target","R","lamp_control","Y","7/27/2015","9:22",1793
"101","072715-01",1,6,41,"car_control","car_control","car_foil","implicature","unambiguous","target","distractor","L","car_control","Y","7/27/2015","9:22",2251
"102","072715-01",1,6,42,"cat_implic","cat_implic","cat_control","implicature","implicature","target","distractor","R","cat_control","N","7/27/2015","9:22",2281
"103","072715-01",1,6,43,"flower_control","flower_control","flower_foil","implicature","unambiguous","target","distractor","L","flower_control","Y","7/27/2015","9:22",2380
"104","072715-01",1,6,44,"bicycle_implic","bicycle_control","bicycle_implic","implicature","implicature","distractor","target","R","bicycle_implic","Y","7/27/2015","9:22",2032
"105","072715-01",1,6,45,"teddybear_implic","teddybear_control","teddybear_implic","implicature","implicature","distractor","target","R","teddybear_implic","Y","7/27/2015","9:22",2210
"106","072715-01",1,6,46,"cup_implic","cup_implic","cup_control","implicature","implicature","target","distractor","R","cup_control","N","7/27/2015","9:22",1903
"107","072715-01",1,6,47,"dog_control","dog_foil","dog_control","implicature","unambiguous","distractor","target","R","dog_control","Y","7/27/2015","9:22",2895
"108","072715-01",1,6,48,"apple_control","apple_foil","apple_control","implicature","unambiguous","distractor","target","R","apple_control","Y","7/27/2015","9:22",2427
"109","072715-01",1,6,49,"lamp_control","lamp_foil","lamp_control","implicature","unambiguous","distractor","target","R","lamp_control","Y","7/27/2015","9:22",2519
"110","072715-01",1,6,50,"car_control","car_control","car_foil","implicature","unambiguous","target","distractor","L","car_control","Y","7/27/2015","9:22",1943
"111","072715-01",1,6,51,"flower_control","flower_control","flower_foil","implicature","unambiguous","target","distractor","L","flower_control","Y","7/27/2015","9:22",2102
"112","072715-01",1,6,52,"banana_control","banana_control","banana_foil","implicature","unambiguous","target","distractor","L","banana_control","Y","7/27/2015","9:22",2180
"113","072715-01",1,6,53,"cookie_implic","cookie_implic","cookie_control","implicature","implicature","target","distractor","R","cookie_control","N","7/27/2015","9:22",2495
"114","072715-01",1,6,54,"dog_implic","dog_control","dog_implic","implicature","implicature","distractor","target","R","dog_implic","Y","7/27/2015","9:22",1983
"115","072715-01",1,6,55,"apple_implic","apple_control","apple_implic","implicature","implicature","distractor","target","L","apple_control","N","7/27/2015","9:22",1983
"116","072715-01",1,6,56,"bird_control","bird_control","bird_foil","implicature","unambiguous","target","distractor","L","bird_control","Y","7/27/2015","9:22",2182
"117","072715-01",1,6,57,"teddybear_implic","teddybear_implic","teddybear_control","implicature","implicature","target","distractor","R","teddybear_control","N","7/27/2015","9:22",1953
"118","072715-01",1,6,58,"cup_implic","cup_implic","cup_control","implicature","implicature","target","distractor","R","cup_control","N","7/27/2015","9:22",2162
"119","072715-01",1,6,59,"bicycle_control","bicycle_foil","bicycle_control","implicature","unambiguous","distractor","target","R","bicycle_control","Y","7/27/2015","9:22",2485
"120","072715-01",1,6,60,"cat_control","cat_foil","cat_control","implicature","unambiguous","distractor","target","R","cat_control","Y","7/27/2015","9:22",2170
"121","072715-01",1,6,1,"apple_pos","apple_pos","apple_inhib","inhibition","control","target","distractor","L","apple_pos","Y","7/27/2015","9:22",1995
"122","072715-01",1,6,2,"apple_pos","apple_pos","apple_inhib","inhibition","control","target","distractor","L","apple_pos","Y","7/27/2015","9:22",1310
"123","072715-01",1,6,3,"apple_pos","apple_inhib","apple_pos","inhibition","control","distractor","target","R","apple_pos","Y","7/27/2015","9:22",1042
"124","072715-01",1,6,4,"apple_pos","apple_inhib","apple_pos","inhibition","control","distractor","target","R","apple_pos","Y","7/27/2015","9:22",843
"125","072715-01",1,6,5,"apple_pos","apple_pos","apple_inhib","inhibition","control","target","distractor","L","apple_pos","Y","7/27/2015","9:22",1182
"126","072715-01",1,6,6,"apple_inhib","apple_pos","apple_inhib","inhibition","inhib","distractor","target","R","apple_inhib","Y","7/27/2015","9:22",1364
"127","072715-01",1,6,7,"car_pos","car_inhib","car_pos","inhibition","control","distractor","target","R","car_pos","Y","7/27/2015","9:22",1053
"128","072715-01",1,6,8,"car_pos","car_pos","car_inhib","inhibition","control","target","distractor","L","car_pos","Y","7/27/2015","9:22",1280
"129","072715-01",1,6,9,"car_pos","car_inhib","car_pos","inhibition","control","distractor","target","R","car_pos","Y","7/27/2015","9:22",839
"130","072715-01",1,6,10,"car_pos","car_inhib","car_pos","inhibition","control","distractor","target","R","car_pos","Y","7/27/2015","9:22",914
"131","072715-01",1,6,11,"car_pos","car_inhib","car_pos","inhibition","control","distractor","target","R","car_pos","Y","7/27/2015","9:22",892
"132","072715-01",1,6,12,"car_inhib","car_pos","car_inhib","inhibition","inhib","distractor","target","R","car_inhib","Y","7/27/2015","9:22",1429
"133","072715-01",1,6,13,"dog_pos","dog_pos","dog_inhib","inhibition","control","target","distractor","L","dog_pos","Y","7/27/2015","9:22",1357
"134","072715-01",1,6,14,"dog_pos","dog_pos","dog_inhib","inhibition","control","target","distractor","L","dog_pos","Y","7/27/2015","9:22",1042
"135","072715-01",1,6,15,"dog_pos","dog_inhib","dog_pos","inhibition","control","distractor","target","R","dog_pos","Y","7/27/2015","9:22",2280
"136","072715-01",1,6,16,"dog_pos","dog_pos","dog_inhib","inhibition","control","target","distractor","L","dog_pos","Y","7/27/2015","9:22",1092
"137","072715-01",1,6,17,"dog_pos","dog_pos","dog_inhib","inhibition","control","target","distractor","L","dog_pos","Y","7/27/2015","9:22",1426
"138","072715-01",1,6,18,"dog_pos","dog_inhib","dog_pos","inhibition","control","distractor","target","R","dog_pos","Y","7/27/2015","9:22",1270
"139","072715-01",1,6,19,"dog_inhib","dog_inhib","dog_pos","inhibition","inhib","target","distractor","L","dog_inhib","Y","7/27/2015","9:22",1735
"140","072715-01",1,6,20,"teddybear_pos","teddybear_pos","teddybear_inhib","inhibition","control","target","distractor","L","teddybear_pos","Y","7/27/2015","9:22",1407
"141","072715-01",1,6,21,"teddybear_pos","teddybear_inhib","teddybear_pos","inhibition","control","distractor","target","R","teddybear_pos","Y","7/27/2015","9:22",1092
"142","072715-01",1,6,22,"teddybear_pos","teddybear_pos","teddybear_inhib","inhibition","control","target","distractor","L","teddybear_pos","Y","7/27/2015","9:22",1011
"143","072715-01",1,6,23,"teddybear_pos","teddybear_pos","teddybear_inhib","inhibition","control","target","distractor","L","teddybear_pos","Y","7/27/2015","9:22",1003
"144","072715-01",1,6,24,"teddybear_pos","teddybear_inhib","teddybear_pos","inhibition","control","distractor","target","R","teddybear_pos","Y","7/27/2015","9:22",1111
"145","072715-01",1,6,25,"teddybear_pos","teddybear_pos","teddybear_inhib","inhibition","control","target","distractor","L","teddybear_pos","Y","7/27/2015","9:22",1256
"146","072715-01",1,6,26,"teddybear_inhib","teddybear_pos","teddybear_inhib","inhibition","inhib","distractor","target","R","teddybear_inhib","Y","7/27/2015","9:22",1817
"147","072715-01",1,6,27,"banana_pos","banana_inhib","banana_pos","inhibition","control","distractor","target","R","banana_pos","Y","7/27/2015","9:22",3708
"148","072715-01",1,6,28,"banana_pos","banana_inhib","banana_pos","inhibition","control","distractor","target","R","banana_pos","Y","7/27/2015","9:22",2052
"149","072715-01",1,6,29,"banana_pos","banana_pos","banana_inhib","inhibition","control","target","distractor","L","banana_pos","Y","7/27/2015","9:22",1686
"150","072715-01",1,6,30,"banana_pos","banana_pos","banana_inhib","inhibition","control","target","distractor","L","banana_pos","Y","7/27/2015","9:22",1388
"151","072715-01",1,6,31,"banana_pos","banana_pos","banana_inhib","inhibition","control","target","distractor","L","banana_pos","Y","7/27/2015","9:22",1340
"152","072715-01",1,6,32,"banana_inhib","banana_pos","banana_inhib","inhibition","inhib","distractor","target","R","banana_inhib","Y","7/27/2015","9:22",1487
"153","072715-01",1,6,33,"bicycle_pos","bicycle_inhib","bicycle_pos","inhibition","control","distractor","target","R","bicycle_pos","Y","7/27/2015","9:22",1398
"154","072715-01",1,6,34,"bicycle_pos","bicycle_inhib","bicycle_pos","inhibition","control","distractor","target","R","bicycle_pos","Y","7/27/2015","9:22",833
"155","072715-01",1,6,35,"bicycle_pos","bicycle_inhib","bicycle_pos","inhibition","control","distractor","target","R","bicycle_pos","Y","7/27/2015","9:22",656
"156","072715-01",1,6,36,"bicycle_pos","bicycle_inhib","bicycle_pos","inhibition","control","distractor","target","R","bicycle_pos","Y","7/27/2015","9:22",695
"157","072715-01",1,6,37,"bicycle_pos","bicycle_inhib","bicycle_pos","inhibition","control","distractor","target","R","bicycle_pos","Y","7/27/2015","9:22",745
"158","072715-01",1,6,38,"bicycle_pos","bicycle_inhib","bicycle_pos","inhibition","control","distractor","target","R","bicycle_pos","Y","7/27/2015","9:22",3124
"159","072715-01",1,6,39,"bicycle_inhib","bicycle_pos","bicycle_inhib","inhibition","inhib","distractor","target","R","bicycle_inhib","Y","7/27/2015","9:22",1802
"160","072715-01",1,6,40,"cat_pos","cat_inhib","cat_pos","inhibition","control","distractor","target","R","cat_pos","Y","7/27/2015","9:22",1841
"161","072715-01",1,6,41,"cat_pos","cat_inhib","cat_pos","inhibition","control","distractor","target","R","cat_pos","Y","7/27/2015","9:22",745
"162","072715-01",1,6,42,"cat_pos","cat_inhib","cat_pos","inhibition","control","distractor","target","R","cat_pos","Y","7/27/2015","9:22",507
"163","072715-01",1,6,43,"cat_pos","cat_inhib","cat_pos","inhibition","control","distractor","target","R","cat_pos","Y","7/27/2015","9:22",576
"164","072715-01",1,6,44,"cat_pos","cat_inhib","cat_pos","inhibition","control","distractor","target","R","cat_pos","Y","7/27/2015","9:22",923
"165","072715-01",1,6,45,"cat_pos","cat_inhib","cat_pos","inhibition","control","distractor","target","R","cat_pos","Y","7/27/2015","9:22",822
"166","072715-01",1,6,46,"cat_inhib","cat_inhib","cat_pos","inhibition","inhib","target","distractor","L","cat_inhib","Y","7/27/2015","9:22",1825
"167","072715-01",1,6,47,"flower_pos","flower_inhib","flower_pos","inhibition","control","distractor","target","R","flower_pos","Y","7/27/2015","9:22",1347
"168","072715-01",1,6,48,"flower_pos","flower_pos","flower_inhib","inhibition","control","target","distractor","L","flower_pos","Y","7/27/2015","9:22",1160
"169","072715-01",1,6,49,"flower_pos","flower_pos","flower_inhib","inhibition","control","target","distractor","L","flower_pos","Y","7/27/2015","9:22",1467
"170","072715-01",1,6,50,"flower_pos","flower_inhib","flower_pos","inhibition","control","distractor","target","R","flower_pos","Y","7/27/2015","9:22",1419
"171","072715-01",1,6,51,"flower_pos","flower_pos","flower_inhib","inhibition","control","target","distractor","L","flower_pos","Y","7/27/2015","9:22",1378
"172","072715-01",1,6,52,"flower_inhib","flower_inhib","flower_pos","inhibition","inhib","target","distractor","L","flower_inhib","Y","7/27/2015","9:22",2092
"173","072715-01",1,6,53,"cookie_pos","cookie_inhib","cookie_pos","inhibition","control","distractor","target","R","cookie_pos","Y","7/27/2015","9:22",1503
"174","072715-01",1,6,54,"cookie_pos","cookie_inhib","cookie_pos","inhibition","control","distractor","target","R","cookie_pos","Y","7/27/2015","9:22",978
"175","072715-01",1,6,55,"cookie_pos","cookie_inhib","cookie_pos","inhibition","control","distractor","target","R","cookie_pos","Y","7/27/2015","9:22",1270
"176","072715-01",1,6,56,"cookie_pos","cookie_pos","cookie_inhib","inhibition","control","target","distractor","L","cookie_pos","Y","7/27/2015","9:22",1549
"177","072715-01",1,6,57,"cookie_pos","cookie_inhib","cookie_pos","inhibition","control","distractor","target","R","cookie_pos","Y","7/27/2015","9:22",1121
"178","072715-01",1,6,58,"cookie_pos","cookie_inhib","cookie_pos","inhibition","control","distractor","target","R","cookie_pos","Y","7/27/2015","9:22",1252
"179","072715-01",1,6,59,"cookie_inhib","cookie_inhib","cookie_pos","inhibition","inhib","target","distractor","L","cookie_inhib","Y","7/27/2015","9:22",1645
"180","072715-01",1,6,60,"lamp_pos","lamp_inhib","lamp_pos","inhibition","control","distractor","target","R","lamp_pos","Y","7/27/2015","9:22",1388
"181","072715-01",1,6,61,"lamp_pos","lamp_pos","lamp_inhib","inhibition","control","target","distractor","L","lamp_pos","Y","7/27/2015","9:22",1330
"182","072715-01",1,6,62,"lamp_pos","lamp_pos","lamp_inhib","inhibition","control","target","distractor","L","lamp_pos","Y","7/27/2015","9:22",1141
"183","072715-01",1,6,63,"lamp_pos","lamp_inhib","lamp_pos","inhibition","control","distractor","target","R","lamp_pos","Y","7/27/2015","9:22",1041
"184","072715-01",1,6,64,"lamp_pos","lamp_inhib","lamp_pos","inhibition","control","distractor","target","R","lamp_pos","Y","7/27/2015","9:22",1072
"185","072715-01",1,6,65,"lamp_inhib","lamp_inhib","lamp_pos","inhibition","inhib","target","distractor","L","lamp_inhib","Y","7/27/2015","9:22",1389
"186","072715-01",1,6,66,"bird_pos","bird_inhib","bird_pos","inhibition","control","distractor","target","R","bird_pos","Y","7/27/2015","9:22",1299
"187","072715-01",1,6,67,"bird_pos","bird_inhib","bird_pos","inhibition","control","distractor","target","R","bird_pos","Y","7/27/2015","9:22",1299
"188","072715-01",1,6,68,"bird_pos","bird_inhib","bird_pos","inhibition","control","distractor","target","R","bird_pos","Y","7/27/2015","9:22",1148
"189","072715-01",1,6,69,"bird_pos","bird_inhib","bird_pos","inhibition","control","distractor","target","R","bird_pos","Y","7/27/2015","9:22",1062
"190","072715-01",1,6,70,"bird_pos","bird_inhib","bird_pos","inhibition","control","distractor","target","R","bird_pos","Y","7/27/2015","9:22",626
"191","072715-01",1,6,71,"bird_pos","bird_pos","bird_inhib","inhibition","control","target","distractor","R","bird_inhib","N","7/27/2015","9:22",562
"192","072715-01",1,6,72,"bird_inhib","bird_inhib","bird_pos","inhibition","inhib","target","distractor","L","bird_inhib","Y","7/27/2015","9:22",1983
"193","072715-01",1,6,73,"cup_pos","cup_inhib","cup_pos","inhibition","control","distractor","target","L","cup_inhib","N","7/27/2015","9:22",1952
"194","072715-01",1,6,74,"cup_pos","cup_pos","cup_inhib","inhibition","control","target","distractor","R","cup_inhib","N","7/27/2015","9:22",1626
"195","072715-01",1,6,75,"cup_pos","cup_pos","cup_inhib","inhibition","control","target","distractor","R","cup_inhib","N","7/27/2015","9:22",1220
"196","072715-01",1,6,76,"cup_pos","cup_inhib","cup_pos","inhibition","control","distractor","target","R","cup_pos","Y","7/27/2015","9:22",1091
"197","072715-01",1,6,77,"cup_pos","cup_inhib","cup_pos","inhibition","control","distractor","target","R","cup_pos","Y","7/27/2015","9:22",2132
"198","072715-01",1,6,78,"cup_inhib","cup_pos","cup_inhib","inhibition","inhib","distractor","target","R","cup_inhib","Y","7/27/2015","9:22",1957
"199","072715-02",2,4,1,"cat_implic","cat_control","cat_implic","implicature","implicature","distractor","target","R","cat_implic","Y","7/27/2015","9:45",2017
"200","072715-02",2,4,2,"bicycle_implic","bicycle_implic","bicycle_control","implicature","implicature","target","distractor","L","bicycle_implic","Y","7/27/2015","9:45",2008
"201","072715-02",2,4,3,"cup_control","cup_foil","cup_control","implicature","unambiguous","distractor","target","R","cup_control","Y","7/27/2015","9:45",1951
"202","072715-02",2,4,4,"teddybear_implic","teddybear_implic","teddybear_control","implicature","implicature","target","distractor","L","teddybear_implic","Y","7/27/2015","9:45",1720
"203","072715-02",2,4,5,"bird_implic","bird_control","bird_implic","implicature","implicature","distractor","target","R","bird_implic","Y","7/27/2015","9:45",2046
"204","072715-02",2,4,6,"apple_control","apple_control","apple_foil","implicature","unambiguous","target","distractor","L","apple_control","Y","7/27/2015","9:45",2141
"205","072715-02",2,4,7,"dog_implic","dog_control","dog_implic","implicature","implicature","distractor","target","R","dog_implic","Y","7/27/2015","9:45",1449
"206","072715-02",2,4,8,"cookie_control","cookie_foil","cookie_control","implicature","unambiguous","distractor","target","R","cookie_control","Y","7/27/2015","9:45",1269
"207","072715-02",2,4,9,"banana_control","banana_foil","banana_control","implicature","unambiguous","distractor","target","R","banana_control","Y","7/27/2015","9:45",1934
"208","072715-02",2,4,10,"flower_control","flower_control","flower_foil","implicature","unambiguous","target","distractor","L","flower_control","Y","7/27/2015","9:45",1409
"209","072715-02",2,4,11,"car_implic","car_implic","car_control","implicature","implicature","target","distractor","L","car_implic","Y","7/27/2015","9:45",1151
"210","072715-02",2,4,12,"lamp_control","lamp_foil","lamp_control","implicature","unambiguous","distractor","target","R","lamp_control","Y","7/27/2015","9:45",1296
"211","072715-02",2,4,13,"apple_control","apple_foil","apple_control","implicature","unambiguous","distractor","target","R","apple_control","Y","7/27/2015","9:45",1237
"212","072715-02",2,4,14,"dog_control","dog_control","dog_foil","implicature","unambiguous","target","distractor","L","dog_control","Y","7/27/2015","9:45",1171
"213","072715-02",2,4,15,"cup_control","cup_control","cup_foil","implicature","unambiguous","target","distractor","L","cup_control","Y","7/27/2015","9:45",1201
"214","072715-02",2,4,16,"teddybear_implic","teddybear_implic","teddybear_control","implicature","implicature","target","distractor","R","teddybear_control","N","7/27/2015","9:45",1048
"215","072715-02",2,4,17,"bicycle_implic","bicycle_implic","bicycle_control","implicature","implicature","target","distractor","L","bicycle_implic","Y","7/27/2015","9:45",1404
"216","072715-02",2,4,18,"flower_implic","flower_implic","flower_control","implicature","implicature","target","distractor","L","flower_implic","Y","7/27/2015","9:45",2574
"217","072715-02",2,4,19,"cat_implic","cat_implic","cat_control","implicature","implicature","target","distractor","R","cat_control","N","7/27/2015","9:45",1314
"218","072715-02",2,4,20,"car_control","car_control","car_foil","implicature","unambiguous","target","distractor","L","car_control","Y","7/27/2015","9:45",1324
"219","072715-02",2,4,21,"lamp_implic","lamp_implic","lamp_control","implicature","implicature","target","distractor","L","lamp_implic","Y","7/27/2015","9:45",1612
"220","072715-02",2,4,22,"banana_implic","banana_control","banana_implic","implicature","implicature","distractor","target","R","banana_implic","Y","7/27/2015","9:45",1308
"221","072715-02",2,4,23,"bird_implic","bird_implic","bird_control","implicature","implicature","target","distractor","L","bird_implic","Y","7/27/2015","9:45",1300
"222","072715-02",2,4,24,"cookie_control","cookie_foil","cookie_control","implicature","unambiguous","distractor","target","R","cookie_control","Y","7/27/2015","9:45",1460
"223","072715-02",2,4,25,"dog_control","dog_control","dog_foil","implicature","unambiguous","target","distractor","L","dog_control","Y","7/27/2015","9:45",2569
"224","072715-02",2,4,26,"lamp_implic","lamp_implic","lamp_control","implicature","implicature","target","distractor","L","lamp_implic","Y","7/27/2015","9:45",1147
"225","072715-02",2,4,27,"cookie_implic","cookie_control","cookie_implic","implicature","implicature","distractor","target","L","cookie_control","N","7/27/2015","9:45",918
"226","072715-02",2,4,28,"car_implic","car_control","car_implic","implicature","implicature","distractor","target","R","car_implic","Y","7/27/2015","9:45",1120
"227","072715-02",2,4,29,"cup_control","cup_control","cup_foil","implicature","unambiguous","target","distractor","L","cup_control","Y","7/27/2015","9:45",2499
"228","072715-02",2,4,30,"bicycle_control","bicycle_foil","bicycle_control","implicature","unambiguous","distractor","target","L","bicycle_foil","N","7/27/2015","9:45",998
"229","072715-02",2,4,31,"teddybear_control","teddybear_control","teddybear_foil","implicature","unambiguous","target","distractor","R","teddybear_foil","N","7/27/2015","9:45",1002
"230","072715-02",2,4,32,"flower_control","flower_foil","flower_control","implicature","unambiguous","distractor","target","L","flower_foil","N","7/27/2015","9:45",8572
"231","072715-02",2,4,33,"cat_implic","cat_control","cat_implic","implicature","implicature","distractor","target","R","cat_implic","Y","7/27/2015","9:45",2595
"232","072715-02",2,4,34,"apple_control","apple_control","apple_foil","implicature","unambiguous","target","distractor","L","apple_control","Y","7/27/2015","9:45",2578
"233","072715-02",2,4,35,"banana_implic","banana_implic","banana_control","implicature","implicature","target","distractor","L","banana_implic","Y","7/27/2015","9:45",4004
"234","072715-02",2,4,36,"bird_control","bird_control","bird_foil","implicature","unambiguous","target","distractor","L","bird_control","Y","7/27/2015","9:45",1310
"235","072715-02",2,4,37,"teddybear_implic","teddybear_implic","teddybear_control","implicature","implicature","target","distractor","L","teddybear_implic","Y","7/27/2015","9:45",1561
"236","072715-02",2,4,38,"cup_control","cup_control","cup_foil","implicature","unambiguous","target","distractor","L","cup_control","Y","7/27/2015","9:45",1212
"237","072715-02",2,4,39,"car_control","car_control","car_foil","implicature","unambiguous","target","distractor","L","car_control","Y","7/27/2015","9:45",1597
"238","072715-02",2,4,40,"banana_implic","banana_implic","banana_control","implicature","implicature","target","distractor","L","banana_implic","Y","7/27/2015","9:45",1819
"239","072715-02",2,4,41,"lamp_implic","lamp_implic","lamp_control","implicature","implicature","target","distractor","L","lamp_implic","Y","7/27/2015","9:45",1361
"240","072715-02",2,4,42,"apple_implic","apple_implic","apple_control","implicature","implicature","target","distractor","L","apple_implic","Y","7/27/2015","9:45",1849
"241","072715-02",2,4,43,"cookie_implic","cookie_control","cookie_implic","implicature","implicature","distractor","target","R","cookie_implic","Y","7/27/2015","9:45",1046
"242","072715-02",2,4,44,"cat_control","cat_control","cat_foil","implicature","unambiguous","target","distractor","L","cat_control","Y","7/27/2015","9:45",1101
"243","072715-02",2,4,45,"bird_control","bird_control","bird_foil","implicature","unambiguous","target","distractor","L","bird_control","Y","7/27/2015","9:45",1271
"244","072715-02",2,4,46,"flower_implic","flower_control","flower_implic","implicature","implicature","distractor","target","R","flower_implic","Y","7/27/2015","9:45",1429
"245","072715-02",2,4,47,"dog_implic","dog_implic","dog_control","implicature","implicature","target","distractor","L","dog_implic","Y","7/27/2015","9:45",1715
"246","072715-02",2,4,48,"bicycle_control","bicycle_control","bicycle_foil","implicature","unambiguous","target","distractor","L","bicycle_control","Y","7/27/2015","9:45",2087
"247","072715-02",2,4,49,"bird_control","bird_control","bird_foil","implicature","unambiguous","target","distractor","L","bird_control","Y","7/27/2015","9:45",1795
"248","072715-02",2,4,50,"flower_control","flower_control","flower_foil","implicature","unambiguous","target","distractor","L","flower_control","Y","7/27/2015","9:45",1449
"249","072715-02",2,4,51,"car_control","car_control","car_foil","implicature","unambiguous","target","distractor","L","car_control","Y","7/27/2015","9:45",1548
"250","072715-02",2,4,52,"lamp_implic","lamp_implic","lamp_control","implicature","implicature","target","distractor","L","lamp_implic","Y","7/27/2015","9:45",2408
"251","072715-02",2,4,53,"bicycle_implic","bicycle_implic","bicycle_control","implicature","implicature","target","distractor","L","bicycle_implic","Y","7/27/2015","9:45",2032
"252","072715-02",2,4,54,"dog_control","dog_control","dog_foil","implicature","unambiguous","target","distractor","L","dog_control","Y","7/27/2015","9:45",1646
"253","072715-02",2,4,55,"teddybear_control","teddybear_control","teddybear_foil","implicature","unambiguous","target","distractor","L","teddybear_control","Y","7/27/2015","9:45",2024
"254","072715-02",2,4,56,"cookie_implic","cookie_control","cookie_implic","implicature","implicature","distractor","target","R","cookie_implic","Y","7/27/2015","9:45",1627
"255","072715-02",2,4,57,"cat_control","cat_control","cat_foil","implicature","unambiguous","target","distractor","L","cat_control","Y","7/27/2015","9:45",1567
"256","072715-02",2,4,58,"apple_implic","apple_control","apple_implic","implicature","implicature","distractor","target","R","apple_implic","Y","7/27/2015","9:45",1126
"257","072715-02",2,4,59,"cup_control","cup_control","cup_foil","implicature","unambiguous","target","distractor","L","cup_control","Y","7/27/2015","9:45",1062
"258","072715-02",2,4,60,"banana_implic","banana_implic","banana_control","implicature","implicature","target","distractor","L","banana_implic","Y","7/27/2015","9:45",1290
"259","072715-02",2,4,1,"cup_pos","cup_pos","cup_inhib","inhibition","control","target","distractor","L","cup_pos","Y","7/27/2015","9:45",1181
"260","072715-02",2,4,2,"cup_pos","cup_inhib","cup_pos","inhibition","control","distractor","target","R","cup_pos","Y","7/27/2015","9:45",1049
"261","072715-02",2,4,3,"cup_pos","cup_pos","cup_inhib","inhibition","control","target","distractor","L","cup_pos","Y","7/27/2015","9:45",962
"262","072715-02",2,4,4,"cup_pos","cup_inhib","cup_pos","inhibition","control","distractor","target","R","cup_pos","Y","7/27/2015","9:45",833
"263","072715-02",2,4,5,"cup_pos","cup_pos","cup_inhib","inhibition","control","target","distractor","L","cup_pos","Y","7/27/2015","9:45",824
"264","072715-02",2,4,6,"cup_pos","cup_inhib","cup_pos","inhibition","control","distractor","target","R","cup_pos","Y","7/27/2015","9:45",764
"265","072715-02",2,4,7,"cup_inhib","cup_inhib","cup_pos","inhibition","inhib","target","distractor","L","cup_inhib","Y","7/27/2015","9:45",1196
"266","072715-02",2,4,8,"bird_pos","bird_pos","bird_inhib","inhibition","control","target","distractor","L","bird_pos","Y","7/27/2015","9:45",1350
"267","072715-02",2,4,9,"bird_pos","bird_pos","bird_inhib","inhibition","control","target","distractor","L","bird_pos","Y","7/27/2015","9:45",1028
"268","072715-02",2,4,10,"bird_pos","bird_pos","bird_inhib","inhibition","control","target","distractor","L","bird_pos","Y","7/27/2015","9:45",868
"269","072715-02",2,4,11,"bird_pos","bird_pos","bird_inhib","inhibition","control","target","distractor","L","bird_pos","Y","7/27/2015","9:45",875
"270","072715-02",2,4,12,"bird_pos","bird_inhib","bird_pos","inhibition","control","distractor","target","R","bird_pos","Y","7/27/2015","9:45",1078
"271","072715-02",2,4,13,"bird_pos","bird_pos","bird_inhib","inhibition","control","target","distractor","L","bird_pos","Y","7/27/2015","9:45",1260
"272","072715-02",2,4,14,"bird_inhib","bird_inhib","bird_pos","inhibition","inhib","target","distractor","L","bird_inhib","Y","7/27/2015","9:45",1476
"273","072715-02",2,4,15,"lamp_pos","lamp_inhib","lamp_pos","inhibition","control","distractor","target","R","lamp_pos","Y","7/27/2015","9:45",1365
"274","072715-02",2,4,16,"lamp_pos","lamp_inhib","lamp_pos","inhibition","control","distractor","target","R","lamp_pos","Y","7/27/2015","9:45",1394
"275","072715-02",2,4,17,"lamp_pos","lamp_pos","lamp_inhib","inhibition","control","target","distractor","L","lamp_pos","Y","7/27/2015","9:45",1728
"276","072715-02",2,4,18,"lamp_pos","lamp_pos","lamp_inhib","inhibition","control","target","distractor","L","lamp_pos","Y","7/27/2015","9:45",948
"277","072715-02",2,4,19,"lamp_pos","lamp_pos","lamp_inhib","inhibition","control","target","distractor","L","lamp_pos","Y","7/27/2015","9:45",513
"278","072715-02",2,4,20,"lamp_inhib","lamp_inhib","lamp_pos","inhibition","inhib","target","distractor","L","lamp_inhib","Y","7/27/2015","9:45",1841
"279","072715-02",2,4,21,"cookie_pos","cookie_inhib","cookie_pos","inhibition","control","distractor","target","R","cookie_pos","Y","7/27/2015","9:45",1404
"280","072715-02",2,4,22,"cookie_pos","cookie_inhib","cookie_pos","inhibition","control","distractor","target","R","cookie_pos","Y","7/27/2015","9:45",1366
"281","072715-02",2,4,23,"cookie_pos","cookie_inhib","cookie_pos","inhibition","control","distractor","target","R","cookie_pos","Y","7/27/2015","9:45",853
"282","072715-02",2,4,24,"cookie_pos","cookie_pos","cookie_inhib","inhibition","control","target","distractor","L","cookie_pos","Y","7/27/2015","9:45",1099
"283","072715-02",2,4,25,"cookie_pos","cookie_pos","cookie_inhib","inhibition","control","target","distractor","L","cookie_pos","Y","7/27/2015","9:45",864
"284","072715-02",2,4,26,"cookie_pos","cookie_pos","cookie_inhib","inhibition","control","target","distractor","L","cookie_pos","Y","7/27/2015","9:45",1071
"285","072715-02",2,4,27,"cookie_inhib","cookie_inhib","cookie_pos","inhibition","inhib","target","distractor","L","cookie_inhib","Y","7/27/2015","9:45",1498
"286","072715-02",2,4,28,"flower_pos","flower_inhib","flower_pos","inhibition","control","distractor","target","R","flower_pos","Y","7/27/2015","9:45",1636
"287","072715-02",2,4,29,"flower_pos","flower_pos","flower_inhib","inhibition","control","target","distractor","L","flower_pos","Y","7/27/2015","9:45",1642
"288","072715-02",2,4,30,"flower_pos","flower_inhib","flower_pos","inhibition","control","distractor","target","R","flower_pos","Y","7/27/2015","9:45",5723
"289","072715-02",2,4,31,"flower_pos","flower_pos","flower_inhib","inhibition","control","target","distractor","L","flower_pos","Y","7/27/2015","9:45",1294
"290","072715-02",2,4,32,"flower_pos","flower_pos","flower_inhib","inhibition","control","target","distractor","L","flower_pos","Y","7/27/2015","9:45",1215
"291","072715-02",2,4,33,"flower_inhib","flower_pos","flower_inhib","inhibition","inhib","distractor","target","R","flower_inhib","Y","7/27/2015","9:45",1042
"292","072715-02",2,4,34,"cat_pos","cat_inhib","cat_pos","inhibition","control","distractor","target","L","cat_inhib","N","7/27/2015","9:45",1210
"293","072715-02",2,4,35,"cat_pos","cat_pos","cat_inhib","inhibition","control","target","distractor","L","cat_pos","Y","7/27/2015","9:45",3747
"294","072715-02",2,4,36,"cat_pos","cat_pos","cat_inhib","inhibition","control","target","distractor","L","cat_pos","Y","7/27/2015","9:45",758
"295","072715-02",2,4,37,"cat_pos","cat_pos","cat_inhib","inhibition","control","target","distractor","L","cat_pos","Y","7/27/2015","9:45",461
"296","072715-02",2,4,38,"cat_pos","cat_pos","cat_inhib","inhibition","control","target","distractor","L","cat_pos","Y","7/27/2015","9:45",358
"297","072715-02",2,4,39,"cat_inhib","cat_inhib","cat_pos","inhibition","inhib","target","distractor","L","cat_inhib","Y","7/27/2015","9:45",1337
"298","072715-02",2,4,40,"bicycle_pos","bicycle_pos","bicycle_inhib","inhibition","control","target","distractor","L","bicycle_pos","Y","7/27/2015","9:45",2774
"299","072715-02",2,4,41,"bicycle_pos","bicycle_inhib","bicycle_pos","inhibition","control","distractor","target","R","bicycle_pos","Y","7/27/2015","9:45",2387
"300","072715-02",2,4,42,"bicycle_pos","bicycle_inhib","bicycle_pos","inhibition","control","distractor","target","R","bicycle_pos","Y","7/27/2015","9:45",1418
"301","072715-02",2,4,43,"bicycle_pos","bicycle_inhib","bicycle_pos","inhibition","control","distractor","target","R","bicycle_pos","Y","7/27/2015","9:45",1022
"302","072715-02",2,4,44,"bicycle_pos","bicycle_pos","bicycle_inhib","inhibition","control","target","distractor","L","bicycle_pos","Y","7/27/2015","9:45",1666
"303","072715-02",2,4,45,"bicycle_inhib","bicycle_inhib","bicycle_pos","inhibition","inhib","target","distractor","L","bicycle_inhib","Y","7/27/2015","9:45",1463
"304","072715-02",2,4,46,"banana_pos","banana_inhib","banana_pos","inhibition","control","distractor","target","R","banana_pos","Y","7/27/2015","9:45",7052
"305","072715-02",2,4,47,"banana_pos","banana_inhib","banana_pos","inhibition","control","distractor","target","R","banana_pos","Y","7/27/2015","9:45",1309
"306","072715-02",2,4,48,"banana_pos","banana_inhib","banana_pos","inhibition","control","distractor","target","R","banana_pos","Y","7/27/2015","9:45",991
"307","072715-02",2,4,49,"banana_pos","banana_inhib","banana_pos","inhibition","control","distractor","target","R","banana_pos","Y","7/27/2015","9:45",528
"308","072715-02",2,4,50,"banana_pos","banana_pos","banana_inhib","inhibition","control","target","distractor","L","banana_pos","Y","7/27/2015","9:45",2339
"309","072715-02",2,4,51,"banana_pos","banana_inhib","banana_pos","inhibition","control","distractor","target","R","banana_pos","Y","7/27/2015","9:45",2014
"310","072715-02",2,4,52,"banana_inhib","banana_inhib","banana_pos","inhibition","inhib","target","distractor","L","banana_inhib","Y","7/27/2015","9:45",2012
"311","072715-02",2,4,53,"teddybear_pos","teddybear_pos","teddybear_inhib","inhibition","control","target","distractor","L","teddybear_pos","Y","7/27/2015","9:45",1418
"312","072715-02",2,4,54,"teddybear_pos","teddybear_pos","teddybear_inhib","inhibition","control","target","distractor","L","teddybear_pos","Y","7/27/2015","9:45",1102
"313","072715-02",2,4,55,"teddybear_pos","teddybear_inhib","teddybear_pos","inhibition","control","distractor","target","R","teddybear_pos","Y","7/27/2015","9:45",929
"314","072715-02",2,4,56,"teddybear_pos","teddybear_pos","teddybear_inhib","inhibition","control","target","distractor","L","teddybear_pos","Y","7/27/2015","9:45",1478
"315","072715-02",2,4,57,"teddybear_pos","teddybear_pos","teddybear_inhib","inhibition","control","target","distractor","L","teddybear_pos","Y","7/27/2015","9:45",1170
"316","072715-02",2,4,58,"teddybear_pos","teddybear_pos","teddybear_inhib","inhibition","control","target","distractor","L","teddybear_pos","Y","7/27/2015","9:45",870
"317","072715-02",2,4,59,"teddybear_inhib","teddybear_inhib","teddybear_pos","inhibition","inhib","target","distractor","L","teddybear_inhib","Y","7/27/2015","9:45",1366
"318","072715-02",2,4,60,"dog_pos","dog_inhib","dog_pos","inhibition","control","distractor","target","L","dog_inhib","N","7/27/2015","9:45",714
"319","072715-02",2,4,61,"dog_pos","dog_inhib","dog_pos","inhibition","control","distractor","target","R","dog_pos","Y","7/27/2015","9:45",1066
"320","072715-02",2,4,62,"dog_pos","dog_inhib","dog_pos","inhibition","control","distractor","target","R","dog_pos","Y","7/27/2015","9:45",691
"321","072715-02",2,4,63,"dog_pos","dog_pos","dog_inhib","inhibition","control","target","distractor","L","dog_pos","Y","7/27/2015","9:45",1142
"322","072715-02",2,4,64,"dog_pos","dog_inhib","dog_pos","inhibition","control","distractor","target","R","dog_pos","Y","7/27/2015","9:45",1815
"323","072715-02",2,4,65,"dog_inhib","dog_pos","dog_inhib","inhibition","inhib","distractor","target","R","dog_inhib","Y","7/27/2015","9:45",2818
"324","072715-02",2,4,66,"car_pos","car_pos","car_inhib","inhibition","control","target","distractor","L","car_pos","Y","7/27/2015","9:45",2376
"325","072715-02",2,4,67,"car_pos","car_pos","car_inhib","inhibition","control","target","distractor","L","car_pos","Y","7/27/2015","9:45",745
"326","072715-02",2,4,68,"car_pos","car_pos","car_inhib","inhibition","control","target","distractor","L","car_pos","Y","7/27/2015","9:45",617
"327","072715-02",2,4,69,"car_pos","car_inhib","car_pos","inhibition","control","distractor","target","R","car_pos","Y","7/27/2015","9:45",943
"328","072715-02",2,4,70,"car_pos","car_pos","car_inhib","inhibition","control","target","distractor","L","car_pos","Y","7/27/2015","9:45",775
"329","072715-02",2,4,71,"car_pos","car_inhib","car_pos","inhibition","control","distractor","target","R","car_pos","Y","7/27/2015","9:45",695
"330","072715-02",2,4,72,"car_inhib","car_pos","car_inhib","inhibition","inhib","distractor","target","R","car_inhib","Y","7/27/2015","9:45",1040
"331","072715-02",2,4,73,"apple_pos","apple_inhib","apple_pos","inhibition","control","distractor","target","R","apple_pos","Y","7/27/2015","9:45",1138
"332","072715-02",2,4,74,"apple_pos","apple_pos","apple_inhib","inhibition","control","target","distractor","L","apple_pos","Y","7/27/2015","9:45",962
"333","072715-02",2,4,75,"apple_pos","apple_pos","apple_inhib","inhibition","control","target","distractor","L","apple_pos","Y","7/27/2015","9:45",745
"334","072715-02",2,4,76,"apple_pos","apple_pos","apple_inhib","inhibition","control","target","distractor","L","apple_pos","Y","7/27/2015","9:45",961
"335","072715-02",2,4,77,"apple_pos","apple_inhib","apple_pos","inhibition","control","distractor","target","R","apple_pos","Y","7/27/2015","9:45",993
"336","072715-02",2,4,78,"apple_pos","apple_pos","apple_inhib","inhibition","control","target","distractor","L","apple_pos","Y","7/27/2015","9:45",1337
"337","072715-02",2,4,79,"apple_inhib","apple_pos","apple_inhib","inhibition","inhib","distractor","target","R","apple_inhib","Y","7/27/2015","9:45",1185
"338","072715-02",2,4,1,"cookie_neg","cookie_pos","cookie_neg","negation","negative","distractor","target","R","cookie_neg","Y","7/27/2015","9:45",1698
"339","072715-02",2,4,2,"flower_pos","flower_neg","flower_pos","negation","positive","distractor","target","R","flower_pos","Y","7/27/2015","9:45",1289
"340","072715-02",2,4,3,"cat_neg","cat_pos","cat_neg","negation","negative","distractor","target","R","cat_neg","Y","7/27/2015","9:45",1394
"341","072715-02",2,4,4,"bicycle_neg","bicycle_pos","bicycle_neg","negation","negative","distractor","target","R","bicycle_neg","Y","7/27/2015","9:45",1447
"342","072715-02",2,4,5,"lamp_neg","lamp_pos","lamp_neg","negation","negative","distractor","target","R","lamp_neg","Y","7/27/2015","9:45",1533
"343","072715-02",2,4,6,"bird_pos","bird_neg","bird_pos","negation","positive","distractor","target","R","bird_pos","Y","7/27/2015","9:45",1810
"344","072715-02",2,4,7,"banana_pos","banana_neg","banana_pos","negation","positive","distractor","target","R","banana_pos","Y","7/27/2015","9:45",1309
"345","072715-02",2,4,8,"dog_neg","dog_neg","dog_pos","negation","negative","target","distractor","L","dog_neg","Y","7/27/2015","9:45",1448
"346","072715-02",2,4,9,"apple_pos","apple_neg","apple_pos","negation","positive","distractor","target","R","apple_pos","Y","7/27/2015","9:45",1696
"347","072715-02",2,4,10,"car_pos","car_neg","car_pos","negation","positive","distractor","target","R","car_pos","Y","7/27/2015","9:45",1339
"348","072715-02",2,4,11,"teddybear_pos","teddybear_neg","teddybear_pos","negation","positive","distractor","target","R","teddybear_pos","Y","7/27/2015","9:45",1179
"349","072715-02",2,4,12,"cup_neg","cup_pos","cup_neg","negation","negative","distractor","target","L","cup_pos","N","7/27/2015","9:45",1145
"350","072715-02",2,4,13,"apple_pos","apple_pos","apple_neg","negation","positive","target","distractor","L","apple_pos","Y","7/27/2015","9:45",2702
"351","072715-02",2,4,14,"cookie_pos","cookie_neg","cookie_pos","negation","positive","distractor","target","R","cookie_pos","Y","7/27/2015","9:45",1756
"352","072715-02",2,4,15,"banana_pos","banana_pos","banana_neg","negation","positive","target","distractor","R","banana_neg","N","7/27/2015","9:45",824
"353","072715-02",2,4,16,"dog_neg","dog_neg","dog_pos","negation","negative","target","distractor","L","dog_neg","Y","7/27/2015","9:45",2113
"354","072715-02",2,4,17,"bird_pos","bird_neg","bird_pos","negation","positive","distractor","target","R","bird_pos","Y","7/27/2015","9:45",2025
"355","072715-02",2,4,18,"bicycle_neg","bicycle_pos","bicycle_neg","negation","negative","distractor","target","R","bicycle_neg","Y","7/27/2015","9:45",1746
"356","072715-02",2,4,19,"cup_pos","cup_neg","cup_pos","negation","positive","distractor","target","R","cup_pos","Y","7/27/2015","9:45",2337
"357","072715-02",2,4,20,"lamp_neg","lamp_neg","lamp_pos","negation","negative","target","distractor","L","lamp_neg","Y","7/27/2015","9:45",2043
"358","072715-02",2,4,21,"car_neg","car_pos","car_neg","negation","negative","distractor","target","L","car_pos","N","7/27/2015","9:45",1256
"359","072715-02",2,4,22,"cat_neg","cat_pos","cat_neg","negation","negative","distractor","target","L","cat_pos","N","7/27/2015","9:45",741.000000000001
"360","072715-02",2,4,23,"flower_neg","flower_neg","flower_pos","negation","negative","target","distractor","L","flower_neg","Y","7/27/2015","9:45",4989
"361","072715-02",2,4,24,"teddybear_pos","teddybear_pos","teddybear_neg","negation","positive","target","distractor","L","teddybear_pos","Y","7/27/2015","9:45",4613
"362","072715-02",2,4,25,"lamp_pos","lamp_neg","lamp_pos","negation","positive","distractor","target","R","lamp_pos","Y","7/27/2015","9:45",1573
"363","072715-02",2,4,26,"flower_neg","flower_pos","flower_neg","negation","negative","distractor","target","R","flower_neg","Y","7/27/2015","9:45",2378
"364","072715-02",2,4,27,"bicycle_pos","bicycle_pos","bicycle_neg","negation","positive","target","distractor","R","bicycle_neg","N","7/27/2015","9:45",418
"365","072715-02",2,4,28,"dog_neg","dog_neg","dog_pos","negation","negative","target","distractor","L","dog_neg","Y","7/27/2015","9:45",3945
"366","072715-02",2,4,29,"cup_neg","cup_neg","cup_pos","negation","negative","target","distractor","L","cup_neg","Y","7/27/2015","9:45",3016
"367","072715-02",2,4,30,"apple_neg","apple_neg","apple_pos","negation","negative","target","distractor","R","apple_pos","N","7/27/2015","9:45",6056
"368","072715-02",2,4,31,"cookie_neg","cookie_neg","cookie_pos","negation","negative","target","distractor","L","cookie_neg","Y","7/27/2015","9:45",2191
"369","072715-02",2,4,32,"teddybear_neg","teddybear_neg","teddybear_pos","negation","negative","target","distractor","R","teddybear_pos","N","7/27/2015","9:45",1280
"370","072715-02",2,4,33,"bird_pos","bird_neg","bird_pos","negation","positive","distractor","target","R","bird_pos","Y","7/27/2015","9:45",1494
"371","072715-02",2,4,34,"cat_neg","cat_neg","cat_pos","negation","negative","target","distractor","L","cat_neg","Y","7/27/2015","9:45",2505
"372","072715-02",2,4,35,"banana_neg","banana_neg","banana_pos","negation","negative","target","distractor","L","banana_neg","Y","7/27/2015","9:45",2119
"373","072715-02",2,4,36,"car_pos","car_neg","car_pos","negation","positive","distractor","target","R","car_pos","Y","7/27/2015","9:45",1835
"374","072715-02",2,4,37,"car_pos","car_neg","car_pos","negation","positive","distractor","target","R","car_pos","Y","7/27/2015","9:45",1102
"375","072715-02",2,4,38,"banana_pos","banana_pos","banana_neg","negation","positive","target","distractor","L","banana_pos","Y","7/27/2015","9:45",1883
"376","072715-02",2,4,39,"dog_pos","dog_pos","dog_neg","negation","positive","target","distractor","L","dog_pos","Y","7/27/2015","9:45",2630
"377","072715-02",2,4,40,"teddybear_pos","teddybear_neg","teddybear_pos","negation","positive","distractor","target","R","teddybear_pos","Y","7/27/2015","9:45",1795
"378","072715-02",2,4,41,"cup_pos","cup_neg","cup_pos","negation","positive","distractor","target","R","cup_pos","Y","7/27/2015","9:45",2896
"379","072715-02",2,4,42,"bird_neg","bird_neg","bird_pos","negation","negative","target","distractor","L","bird_neg","Y","7/27/2015","9:45",2020
"380","072715-02",2,4,43,"apple_neg","apple_pos","apple_neg","negation","negative","distractor","target","R","apple_neg","Y","7/27/2015","9:45",2493
"381","072715-02",2,4,44,"lamp_pos","lamp_pos","lamp_neg","negation","positive","target","distractor","L","lamp_pos","Y","7/27/2015","9:45",2333
"382","072715-02",2,4,45,"cat_neg","cat_neg","cat_pos","negation","negative","target","distractor","R","cat_pos","N","7/27/2015","9:45",1292
"383","072715-02",2,4,46,"cookie_pos","cookie_pos","cookie_neg","negation","positive","target","distractor","L","cookie_pos","Y","7/27/2015","9:45",2063
"384","072715-02",2,4,47,"bicycle_pos","bicycle_pos","bicycle_neg","negation","positive","target","distractor","L","bicycle_pos","Y","7/27/2015","9:45",1269
"385","072715-02",2,4,48,"flower_pos","flower_pos","flower_neg","negation","positive","target","distractor","L","flower_pos","Y","7/27/2015","9:45",1256
"386","072715-02",2,4,49,"banana_pos","banana_pos","banana_neg","negation","positive","target","distractor","L","banana_pos","Y","7/27/2015","9:45",1312
"387","072715-02",2,4,50,"flower_neg","flower_pos","flower_neg","negation","negative","distractor","target","R","flower_neg","Y","7/27/2015","9:45",1019
"388","072715-02",2,4,51,"bird_neg","bird_pos","bird_neg","negation","negative","distractor","target","R","bird_neg","Y","7/27/2015","9:45",1139
"389","072715-02",2,4,52,"apple_neg","apple_pos","apple_neg","negation","negative","distractor","target","R","apple_neg","Y","7/27/2015","9:45",1510
"390","072715-02",2,4,53,"lamp_neg","lamp_neg","lamp_pos","negation","negative","target","distractor","L","lamp_neg","Y","7/27/2015","9:45",1335
"391","072715-02",2,4,54,"bicycle_neg","bicycle_pos","bicycle_neg","negation","negative","distractor","target","L","bicycle_pos","N","7/27/2015","9:45",817.000000000001
"392","072715-02",2,4,55,"cup_pos","cup_neg","cup_pos","negation","positive","distractor","target","R","cup_pos","Y","7/27/2015","9:45",1310
"393","072715-02",2,4,56,"car_neg","car_pos","car_neg","negation","negative","distractor","target","R","car_neg","Y","7/27/2015","9:45",2038
"394","072715-02",2,4,57,"cookie_pos","cookie_pos","cookie_neg","negation","positive","target","distractor","L","cookie_pos","Y","7/27/2015","9:45",1458
"395","072715-02",2,4,58,"teddybear_neg","teddybear_pos","teddybear_neg","negation","negative","distractor","target","R","teddybear_neg","Y","7/27/2015","9:45",919.999999999998
"396","072715-02",2,4,59,"cat_pos","cat_pos","cat_neg","negation","positive","target","distractor","L","cat_pos","Y","7/27/2015","9:45",1984
"397","072715-02",2,4,60,"dog_pos","dog_pos","dog_neg","negation","positive","target","distractor","L","dog_pos","Y","7/27/2015","9:45",1840
"398","072815-03",1,4,1,"banana_implic","banana_implic","banana_control","implicature","implicature","target","distractor","R","banana_control","N","7/28/2015","13:11",9805
"399","072815-03",1,4,2,"cup_control","cup_control","cup_foil","implicature","unambiguous","target","distractor","L","cup_control","Y","7/28/2015","13:11",3789
"400","072815-03",1,4,3,"apple_implic","apple_implic","apple_control","implicature","implicature","target","distractor","R","apple_control","N","7/28/2015","13:11",1685
"401","072815-03",1,4,4,"cat_implic","cat_implic","cat_control","implicature","implicature","target","distractor","R","cat_control","N","7/28/2015","13:11",1486
"402","072815-03",1,4,5,"cookie_control","cookie_foil","cookie_control","implicature","unambiguous","distractor","target","R","cookie_control","Y","7/28/2015","13:11",1361
"403","072815-03",1,4,6,"teddybear_control","teddybear_control","teddybear_foil","implicature","unambiguous","target","distractor","L","teddybear_control","Y","7/28/2015","13:11",1635
"404","072815-03",1,4,7,"dog_implic","dog_implic","dog_control","implicature","implicature","target","distractor","R","dog_control","N","7/28/2015","13:11",1655
"405","072815-03",1,4,8,"bicycle_control","bicycle_foil","bicycle_control","implicature","unambiguous","distractor","target","R","bicycle_control","Y","7/28/2015","13:11",1452
"406","072815-03",1,4,9,"lamp_implic","lamp_implic","lamp_control","implicature","implicature","target","distractor","R","lamp_control","N","7/28/2015","13:11",1373
"407","072815-03",1,4,10,"car_control","car_foil","car_control","implicature","unambiguous","distractor","target","R","car_control","Y","7/28/2015","13:11",1224
"408","072815-03",1,4,11,"flower_implic","flower_control","flower_implic","implicature","implicature","distractor","target","L","flower_control","N","7/28/2015","13:11",1471
"409","072815-03",1,4,12,"bird_control","bird_control","bird_foil","implicature","unambiguous","target","distractor","L","bird_control","Y","7/28/2015","13:11",1254
"410","072815-03",1,4,13,"bicycle_control","bicycle_foil","bicycle_control","implicature","unambiguous","distractor","target","R","bicycle_control","Y","7/28/2015","13:11",1204
"411","072815-03",1,4,14,"dog_implic","dog_implic","dog_control","implicature","implicature","target","distractor","R","dog_control","N","7/28/2015","13:11",1523
"412","072815-03",1,4,15,"flower_implic","flower_control","flower_implic","implicature","implicature","distractor","target","L","flower_control","N","7/28/2015","13:11",1306
"413","072815-03",1,4,16,"bird_control","bird_control","bird_foil","implicature","unambiguous","target","distractor","L","bird_control","Y","7/28/2015","13:11",1347
"414","072815-03",1,4,17,"cat_control","cat_foil","cat_control","implicature","unambiguous","distractor","target","R","cat_control","Y","7/28/2015","13:11",1455
"415","072815-03",1,4,18,"cookie_implic","cookie_control","cookie_implic","implicature","implicature","distractor","target","L","cookie_control","N","7/28/2015","13:11",1615
"416","072815-03",1,4,19,"apple_implic","apple_control","apple_implic","implicature","implicature","distractor","target","L","apple_control","N","7/28/2015","13:11",1133
"417","072815-03",1,4,20,"lamp_control","lamp_control","lamp_foil","implicature","unambiguous","target","distractor","L","lamp_control","Y","7/28/2015","13:11",1490
"418","072815-03",1,4,21,"banana_control","banana_control","banana_foil","implicature","unambiguous","target","distractor","L","banana_control","Y","7/28/2015","13:11",1119
"419","072815-03",1,4,22,"car_control","car_foil","car_control","implicature","unambiguous","distractor","target","R","car_control","Y","7/28/2015","13:11",1035
"420","072815-03",1,4,23,"cup_implic","cup_control","cup_implic","implicature","implicature","distractor","target","L","cup_control","N","7/28/2015","13:11",1200
"421","072815-03",1,4,24,"teddybear_control","teddybear_control","teddybear_foil","implicature","unambiguous","target","distractor","L","teddybear_control","Y","7/28/2015","13:11",1209
"422","072815-03",1,4,25,"bird_control","bird_foil","bird_control","implicature","unambiguous","distractor","target","R","bird_control","Y","7/28/2015","13:11",1037
"423","072815-03",1,4,26,"banana_control","banana_control","banana_foil","implicature","unambiguous","target","distractor","L","banana_control","Y","7/28/2015","13:11",1682
"424","072815-03",1,4,27,"apple_control","apple_foil","apple_control","implicature","unambiguous","distractor","target","R","apple_control","Y","7/28/2015","13:11",1242
"425","072815-03",1,4,28,"cat_implic","cat_control","cat_implic","implicature","implicature","distractor","target","L","cat_control","N","7/28/2015","13:11",1276
"426","072815-03",1,4,29,"flower_implic","flower_control","flower_implic","implicature","implicature","distractor","target","R","flower_implic","Y","7/28/2015","13:11",1300
"427","072815-03",1,4,30,"teddybear_control","teddybear_control","teddybear_foil","implicature","unambiguous","target","distractor","L","teddybear_control","Y","7/28/2015","13:11",1386
"428","072815-03",1,4,31,"bicycle_control","bicycle_control","bicycle_foil","implicature","unambiguous","target","distractor","L","bicycle_control","Y","7/28/2015","13:11",1146
"429","072815-03",1,4,32,"cup_control","cup_foil","cup_control","implicature","unambiguous","distractor","target","R","cup_control","Y","7/28/2015","13:11",1099
"430","072815-03",1,4,33,"car_control","car_control","car_foil","implicature","unambiguous","target","distractor","L","car_control","Y","7/28/2015","13:11",1144
"431","072815-03",1,4,34,"cookie_implic","cookie_control","cookie_implic","implicature","implicature","distractor","target","L","cookie_control","N","7/28/2015","13:11",1175
"432","072815-03",1,4,35,"lamp_implic","lamp_implic","lamp_control","implicature","implicature","target","distractor","R","lamp_control","N","7/28/2015","13:11",1114
"433","072815-03",1,4,36,"dog_control","dog_foil","dog_control","implicature","unambiguous","distractor","target","R","dog_control","Y","7/28/2015","13:11",1094
"434","072815-03",1,4,37,"cookie_control","cookie_foil","cookie_control","implicature","unambiguous","distractor","target","R","cookie_control","Y","7/28/2015","13:11",827
"435","072815-03",1,4,38,"bird_implic","bird_control","bird_implic","implicature","implicature","distractor","target","L","bird_control","N","7/28/2015","13:11",1461
"436","072815-03",1,4,39,"banana_control","banana_foil","banana_control","implicature","unambiguous","distractor","target","R","banana_control","Y","7/28/2015","13:11",1093
"437","072815-03",1,4,40,"lamp_implic","lamp_implic","lamp_control","implicature","implicature","target","distractor","R","lamp_control","N","7/28/2015","13:11",826
"438","072815-03",1,4,41,"car_implic","car_implic","car_control","implicature","implicature","target","distractor","R","car_control","N","7/28/2015","13:11",1185
"439","072815-03",1,4,42,"cat_implic","cat_control","cat_implic","implicature","implicature","distractor","target","L","cat_control","N","7/28/2015","13:11",927
"440","072815-03",1,4,43,"flower_control","flower_control","flower_foil","implicature","unambiguous","target","distractor","L","flower_control","Y","7/28/2015","13:11",1393
"441","072815-03",1,4,44,"bicycle_control","bicycle_foil","bicycle_control","implicature","unambiguous","distractor","target","R","bicycle_control","Y","7/28/2015","13:11",990
"442","072815-03",1,4,45,"teddybear_implic","teddybear_control","teddybear_implic","implicature","implicature","distractor","target","L","teddybear_control","N","7/28/2015","13:11",975
"443","072815-03",1,4,46,"cup_implic","cup_control","cup_implic","implicature","implicature","distractor","target","L","cup_control","N","7/28/2015","13:11",955
"444","072815-03",1,4,47,"dog_control","dog_control","dog_foil","implicature","unambiguous","target","distractor","L","dog_control","Y","7/28/2015","13:11",2025
"445","072815-03",1,4,48,"apple_implic","apple_control","apple_implic","implicature","implicature","distractor","target","L","apple_control","N","7/28/2015","13:11",2467
"446","072815-03",1,4,49,"lamp_implic","lamp_control","lamp_implic","implicature","implicature","distractor","target","L","lamp_control","N","7/28/2015","13:11",1010
"447","072815-03",1,4,50,"car_implic","car_implic","car_control","implicature","implicature","target","distractor","R","car_control","N","7/28/2015","13:11",1023
"448","072815-03",1,4,51,"flower_control","flower_foil","flower_control","implicature","unambiguous","distractor","target","R","flower_control","Y","7/28/2015","13:11",1033
"449","072815-03",1,4,52,"banana_implic","banana_control","banana_implic","implicature","implicature","distractor","target","L","banana_control","N","7/28/2015","13:11",889
"450","072815-03",1,4,53,"cookie_control","cookie_control","cookie_foil","implicature","unambiguous","target","distractor","L","cookie_control","Y","7/28/2015","13:11",988
"451","072815-03",1,4,54,"dog_implic","dog_implic","dog_control","implicature","implicature","target","distractor","R","dog_control","N","7/28/2015","13:11",798
"452","072815-03",1,4,55,"apple_implic","apple_control","apple_implic","implicature","implicature","distractor","target","L","apple_control","N","7/28/2015","13:11",905
"453","072815-03",1,4,56,"bird_control","bird_control","bird_foil","implicature","unambiguous","target","distractor","L","bird_control","Y","7/28/2015","13:11",957
"454","072815-03",1,4,57,"teddybear_control","teddybear_control","teddybear_foil","implicature","unambiguous","target","distractor","L","teddybear_control","Y","7/28/2015","13:11",1270
"455","072815-03",1,4,58,"cup_implic","cup_control","cup_implic","implicature","implicature","distractor","target","L","cup_control","N","7/28/2015","13:11",889
"456","072815-03",1,4,59,"bicycle_implic","bicycle_implic","bicycle_control","implicature","implicature","target","distractor","R","bicycle_control","N","7/28/2015","13:11",1145
"457","072815-03",1,4,60,"cat_implic","cat_control","cat_implic","implicature","implicature","distractor","target","L","cat_control","N","7/28/2015","13:11",1001
"458","072815-03",1,4,1,"apple_pos","apple_pos","apple_inhib","inhibition","control","target","distractor","L","apple_pos","Y","7/28/2015","13:11",4015
"459","072815-03",1,4,2,"apple_pos","apple_inhib","apple_pos","inhibition","control","distractor","target","L","apple_inhib","N","7/28/2015","13:11",2054
"460","072815-03",1,4,3,"apple_pos","apple_inhib","apple_pos","inhibition","control","distractor","target","R","apple_pos","Y","7/28/2015","13:11",3267
"461","072815-03",1,4,4,"apple_pos","apple_pos","apple_inhib","inhibition","control","target","distractor","L","apple_pos","Y","7/28/2015","13:11",1218
"462","072815-03",1,4,5,"apple_pos","apple_pos","apple_inhib","inhibition","control","target","distractor","L","apple_pos","Y","7/28/2015","13:11",1261
"463","072815-03",1,4,6,"apple_pos","apple_pos","apple_inhib","inhibition","control","target","distractor","L","apple_pos","Y","7/28/2015","13:11",1794
"464","072815-03",1,4,7,"apple_inhib","apple_inhib","apple_pos","inhibition","inhib","target","distractor","L","apple_inhib","Y","7/28/2015","13:11",1697
"465","072815-03",1,4,8,"car_pos","car_pos","car_inhib","inhibition","control","target","distractor","L","car_pos","Y","7/28/2015","13:11",2038
"466","072815-03",1,4,9,"car_pos","car_inhib","car_pos","inhibition","control","distractor","target","R","car_pos","Y","7/28/2015","13:11",1271
"467","072815-03",1,4,10,"car_pos","car_inhib","car_pos","inhibition","control","distractor","target","R","car_pos","Y","7/28/2015","13:11",1164
"468","072815-03",1,4,11,"car_pos","car_inhib","car_pos","inhibition","control","distractor","target","R","car_pos","Y","7/28/2015","13:11",1097
"469","072815-03",1,4,12,"car_pos","car_pos","car_inhib","inhibition","control","target","distractor","L","car_pos","Y","7/28/2015","13:11",1132
"470","072815-03",1,4,13,"car_inhib","car_pos","car_inhib","inhibition","inhib","distractor","target","R","car_inhib","Y","7/28/2015","13:11",1189
"471","072815-03",1,4,14,"dog_pos","dog_pos","dog_inhib","inhibition","control","target","distractor","L","dog_pos","Y","7/28/2015","13:11",1176
"472","072815-03",1,4,15,"dog_pos","dog_pos","dog_inhib","inhibition","control","target","distractor","L","dog_pos","Y","7/28/2015","13:11",1000
"473","072815-03",1,4,16,"dog_pos","dog_pos","dog_inhib","inhibition","control","target","distractor","L","dog_pos","Y","7/28/2015","13:11",1266
"474","072815-03",1,4,17,"dog_pos","dog_pos","dog_inhib","inhibition","control","target","distractor","L","dog_pos","Y","7/28/2015","13:11",868
"475","072815-03",1,4,18,"dog_pos","dog_pos","dog_inhib","inhibition","control","target","distractor","L","dog_pos","Y","7/28/2015","13:11",1186
"476","072815-03",1,4,19,"dog_inhib","dog_inhib","dog_pos","inhibition","inhib","target","distractor","L","dog_inhib","Y","7/28/2015","13:11",1126
"477","072815-03",1,4,20,"teddybear_pos","teddybear_pos","teddybear_inhib","inhibition","control","target","distractor","L","teddybear_pos","Y","7/28/2015","13:11",1171
"478","072815-03",1,4,21,"teddybear_pos","teddybear_pos","teddybear_inhib","inhibition","control","target","distractor","L","teddybear_pos","Y","7/28/2015","13:11",1276
"479","072815-03",1,4,22,"teddybear_pos","teddybear_pos","teddybear_inhib","inhibition","control","target","distractor","L","teddybear_pos","Y","7/28/2015","13:11",976
"480","072815-03",1,4,23,"teddybear_pos","teddybear_inhib","teddybear_pos","inhibition","control","distractor","target","R","teddybear_pos","Y","7/28/2015","13:11",1476
"481","072815-03",1,4,24,"teddybear_pos","teddybear_pos","teddybear_inhib","inhibition","control","target","distractor","L","teddybear_pos","Y","7/28/2015","13:11",1020
"482","072815-03",1,4,25,"teddybear_pos","teddybear_inhib","teddybear_pos","inhibition","control","distractor","target","R","teddybear_pos","Y","7/28/2015","13:11",697
"483","072815-03",1,4,26,"teddybear_inhib","teddybear_pos","teddybear_inhib","inhibition","inhib","distractor","target","L","teddybear_pos","N","7/28/2015","13:11",736
"484","072815-03",1,4,27,"banana_pos","banana_pos","banana_inhib","inhibition","control","target","distractor","L","banana_pos","Y","7/28/2015","13:11",2017
"485","072815-03",1,4,28,"banana_pos","banana_pos","banana_inhib","inhibition","control","target","distractor","L","banana_pos","Y","7/28/2015","13:11",1096
"486","072815-03",1,4,29,"banana_pos","banana_inhib","banana_pos","inhibition","control","distractor","target","R","banana_pos","Y","7/28/2015","13:11",1098
"487","072815-03",1,4,30,"banana_pos","banana_pos","banana_inhib","inhibition","control","target","distractor","L","banana_pos","Y","7/28/2015","13:11",1016
"488","072815-03",1,4,31,"banana_pos","banana_pos","banana_inhib","inhibition","control","target","distractor","L","banana_pos","Y","7/28/2015","13:11",853
"489","072815-03",1,4,32,"banana_inhib","banana_pos","banana_inhib","inhibition","inhib","distractor","target","L","banana_pos","N","7/28/2015","13:11",555
"490","072815-03",1,4,33,"bicycle_pos","bicycle_inhib","bicycle_pos","inhibition","control","distractor","target","R","bicycle_pos","Y","7/28/2015","13:11",1290
"491","072815-03",1,4,34,"bicycle_pos","bicycle_pos","bicycle_inhib","inhibition","control","target","distractor","L","bicycle_pos","Y","7/28/2015","13:11",1205
"492","072815-03",1,4,35,"bicycle_pos","bicycle_pos","bicycle_inhib","inhibition","control","target","distractor","L","bicycle_pos","Y","7/28/2015","13:11",958
"493","072815-03",1,4,36,"bicycle_pos","bicycle_inhib","bicycle_pos","inhibition","control","distractor","target","R","bicycle_pos","Y","7/28/2015","13:11",969
"494","072815-03",1,4,37,"bicycle_pos","bicycle_inhib","bicycle_pos","inhibition","control","distractor","target","R","bicycle_pos","Y","7/28/2015","13:11",731
"495","072815-03",1,4,38,"bicycle_inhib","bicycle_inhib","bicycle_pos","inhibition","inhib","target","distractor","L","bicycle_inhib","Y","7/28/2015","13:11",1344
"496","072815-03",1,4,39,"cat_pos","cat_inhib","cat_pos","inhibition","control","distractor","target","R","cat_pos","Y","7/28/2015","13:11",1501
"497","072815-03",1,4,40,"cat_pos","cat_inhib","cat_pos","inhibition","control","distractor","target","R","cat_pos","Y","7/28/2015","13:11",875
"498","072815-03",1,4,41,"cat_pos","cat_pos","cat_inhib","inhibition","control","target","distractor","L","cat_pos","Y","7/28/2015","13:11",1530
"499","072815-03",1,4,42,"cat_pos","cat_inhib","cat_pos","inhibition","control","distractor","target","R","cat_pos","Y","7/28/2015","13:11",826
"500","072815-03",1,4,43,"cat_pos","cat_inhib","cat_pos","inhibition","control","distractor","target","R","cat_pos","Y","7/28/2015","13:11",737
"501","072815-03",1,4,44,"cat_inhib","cat_pos","cat_inhib","inhibition","inhib","distractor","target","L","cat_pos","N","7/28/2015","13:11",851
"502","072815-03",1,4,45,"flower_pos","flower_inhib","flower_pos","inhibition","control","distractor","target","R","flower_pos","Y","7/28/2015","13:11",2082
"503","072815-03",1,4,46,"flower_pos","flower_pos","flower_inhib","inhibition","control","target","distractor","L","flower_pos","Y","7/28/2015","13:11",832
"504","072815-03",1,4,47,"flower_pos","flower_inhib","flower_pos","inhibition","control","distractor","target","R","flower_pos","Y","7/28/2015","13:11",848
"505","072815-03",1,4,48,"flower_pos","flower_pos","flower_inhib","inhibition","control","target","distractor","L","flower_pos","Y","7/28/2015","13:11",698
"506","072815-03",1,4,49,"flower_pos","flower_inhib","flower_pos","inhibition","control","distractor","target","R","flower_pos","Y","7/28/2015","13:11",651
"507","072815-03",1,4,50,"flower_inhib","flower_pos","flower_inhib","inhibition","inhib","distractor","target","R","flower_inhib","Y","7/28/2015","13:11",1160
"508","072815-03",1,4,51,"cookie_pos","cookie_inhib","cookie_pos","inhibition","control","distractor","target","R","cookie_pos","Y","7/28/2015","13:11",1304
"509","072815-03",1,4,52,"cookie_pos","cookie_inhib","cookie_pos","inhibition","control","distractor","target","R","cookie_pos","Y","7/28/2015","13:11",985
"510","072815-03",1,4,53,"cookie_pos","cookie_inhib","cookie_pos","inhibition","control","distractor","target","R","cookie_pos","Y","7/28/2015","13:11",791
"511","072815-03",1,4,54,"cookie_pos","cookie_inhib","cookie_pos","inhibition","control","distractor","target","R","cookie_pos","Y","7/28/2015","13:11",659
"512","072815-03",1,4,55,"cookie_pos","cookie_inhib","cookie_pos","inhibition","control","distractor","target","R","cookie_pos","Y","7/28/2015","13:11",1299
"513","072815-03",1,4,56,"cookie_pos","cookie_inhib","cookie_pos","inhibition","control","distractor","target","R","cookie_pos","Y","7/28/2015","13:11",663
"514","072815-03",1,4,57,"cookie_inhib","cookie_pos","cookie_inhib","inhibition","inhib","distractor","target","R","cookie_inhib","Y","7/28/2015","13:11",1265
"515","072815-03",1,4,58,"lamp_pos","lamp_pos","lamp_inhib","inhibition","control","target","distractor","L","lamp_pos","Y","7/28/2015","13:11",1220
"516","072815-03",1,4,59,"lamp_pos","lamp_pos","lamp_inhib","inhibition","control","target","distractor","L","lamp_pos","Y","7/28/2015","13:11",785
"517","072815-03",1,4,60,"lamp_pos","lamp_inhib","lamp_pos","inhibition","control","distractor","target","R","lamp_pos","Y","7/28/2015","13:11",903
"518","072815-03",1,4,61,"lamp_pos","lamp_pos","lamp_inhib","inhibition","control","target","distractor","L","lamp_pos","Y","7/28/2015","13:11",774
"519","072815-03",1,4,62,"lamp_pos","lamp_inhib","lamp_pos","inhibition","control","distractor","target","R","lamp_pos","Y","7/28/2015","13:11",629
"520","072815-03",1,4,63,"lamp_inhib","lamp_inhib","lamp_pos","inhibition","inhib","target","distractor","L","lamp_inhib","Y","7/28/2015","13:11",996
"521","072815-03",1,4,64,"bird_pos","bird_pos","bird_inhib","inhibition","control","target","distractor","L","bird_pos","Y","7/28/2015","13:11",1137
"522","072815-03",1,4,65,"bird_pos","bird_pos","bird_inhib","inhibition","control","target","distractor","L","bird_pos","Y","7/28/2015","13:11",1025
"523","072815-03",1,4,66,"bird_pos","bird_inhib","bird_pos","inhibition","control","distractor","target","L","bird_inhib","N","7/28/2015","13:11",707
"524","072815-03",1,4,67,"bird_pos","bird_pos","bird_inhib","inhibition","control","target","distractor","L","bird_pos","Y","7/28/2015","13:11",726
"525","072815-03",1,4,68,"bird_pos","bird_pos","bird_inhib","inhibition","control","target","distractor","L","bird_pos","Y","7/28/2015","13:11",862
"526","072815-03",1,4,69,"bird_inhib","bird_pos","bird_inhib","inhibition","inhib","distractor","target","R","bird_inhib","Y","7/28/2015","13:11",1391
"527","072815-03",1,4,70,"cup_pos","cup_pos","cup_inhib","inhibition","control","target","distractor","L","cup_pos","Y","7/28/2015","13:11",1798
"528","072815-03",1,4,71,"cup_pos","cup_inhib","cup_pos","inhibition","control","distractor","target","L","cup_inhib","N","7/28/2015","13:11",1189
"529","072815-03",1,4,72,"cup_pos","cup_inhib","cup_pos","inhibition","control","distractor","target","L","cup_inhib","N","7/28/2015","13:11",1161
"530","072815-03",1,4,73,"cup_pos","cup_inhib","cup_pos","inhibition","control","distractor","target","R","cup_pos","Y","7/28/2015","13:11",1602
"531","072815-03",1,4,74,"cup_pos","cup_pos","cup_inhib","inhibition","control","target","distractor","L","cup_pos","Y","7/28/2015","13:11",1345
"532","072815-03",1,4,75,"cup_inhib","cup_inhib","cup_pos","inhibition","inhib","target","distractor","R","cup_pos","N","7/28/2015","13:11",650
"533","072815-03",1,4,1,"dog_neg","dog_pos","dog_neg","negation","negative","distractor","target","R","dog_neg","Y","7/28/2015","13:11",2477
"534","072815-03",1,4,2,"cat_neg","cat_pos","cat_neg","negation","negative","distractor","target","R","cat_neg","Y","7/28/2015","13:11",1548
"535","072815-03",1,4,3,"teddybear_pos","teddybear_neg","teddybear_pos","negation","positive","distractor","target","R","teddybear_pos","Y","7/28/2015","13:11",1521
"536","072815-03",1,4,4,"cookie_pos","cookie_neg","cookie_pos","negation","positive","distractor","target","R","cookie_pos","Y","7/28/2015","13:11",1205
"537","072815-03",1,4,5,"car_pos","car_neg","car_pos","negation","positive","distractor","target","R","car_pos","Y","7/28/2015","13:11",1288
"538","072815-03",1,4,6,"cup_pos","cup_pos","cup_neg","negation","positive","target","distractor","L","cup_pos","Y","7/28/2015","13:11",1446
"539","072815-03",1,4,7,"bicycle_neg","bicycle_pos","bicycle_neg","negation","negative","distractor","target","L","bicycle_pos","N","7/28/2015","13:11",1468
"540","072815-03",1,4,8,"lamp_neg","lamp_neg","lamp_pos","negation","negative","target","distractor","R","lamp_pos","N","7/28/2015","13:11",6955
"541","072815-03",1,4,9,"apple_neg","apple_neg","apple_pos","negation","negative","target","distractor","R","apple_pos","N","7/28/2015","13:11",1053
"542","072815-03",1,4,10,"bird_neg","bird_pos","bird_neg","negation","negative","distractor","target","R","bird_neg","Y","7/28/2015","13:11",1065
"543","072815-03",1,4,11,"flower_neg","flower_neg","flower_pos","negation","negative","target","distractor","L","flower_neg","Y","7/28/2015","13:11",1020
"544","072815-03",1,4,12,"banana_neg","banana_pos","banana_neg","negation","negative","distractor","target","R","banana_neg","Y","7/28/2015","13:11",957.000000000001
"545","072815-03",1,4,13,"flower_pos","flower_pos","flower_neg","negation","positive","target","distractor","L","flower_pos","Y","7/28/2015","13:11",1800
"546","072815-03",1,4,14,"bicycle_neg","bicycle_pos","bicycle_neg","negation","negative","distractor","target","R","bicycle_neg","Y","7/28/2015","13:11",1152
"547","072815-03",1,4,15,"cookie_pos","cookie_pos","cookie_neg","negation","positive","target","distractor","L","cookie_pos","Y","7/28/2015","13:11",2070
"548","072815-03",1,4,16,"cat_neg","cat_neg","cat_pos","negation","negative","target","distractor","L","cat_neg","Y","7/28/2015","13:11",1927
"549","072815-03",1,4,17,"lamp_neg","lamp_pos","lamp_neg","negation","negative","distractor","target","L","lamp_pos","N","7/28/2015","13:11",1574
"550","072815-03",1,4,18,"apple_neg","apple_neg","apple_pos","negation","negative","target","distractor","R","apple_pos","N","7/28/2015","13:11",1043
"551","072815-03",1,4,19,"bird_pos","bird_pos","bird_neg","negation","positive","target","distractor","L","bird_pos","Y","7/28/2015","13:11",1160
"552","072815-03",1,4,20,"cup_pos","cup_neg","cup_pos","negation","positive","distractor","target","R","cup_pos","Y","7/28/2015","13:11",1512
"553","072815-03",1,4,21,"teddybear_neg","teddybear_pos","teddybear_neg","negation","negative","distractor","target","L","teddybear_pos","N","7/28/2015","13:11",1347
"554","072815-03",1,4,22,"dog_neg","dog_neg","dog_pos","negation","negative","target","distractor","L","dog_neg","Y","7/28/2015","13:11",2907
"555","072815-03",1,4,23,"banana_pos","banana_neg","banana_pos","negation","positive","distractor","target","R","banana_pos","Y","7/28/2015","13:11",1790
"556","072815-03",1,4,24,"car_pos","car_neg","car_pos","negation","positive","distractor","target","R","car_pos","Y","7/28/2015","13:11",2283
"557","072815-03",1,4,25,"car_pos","car_pos","car_neg","negation","positive","target","distractor","L","car_pos","Y","7/28/2015","13:11",2276
"558","072815-03",1,4,26,"banana_neg","banana_neg","banana_pos","negation","negative","target","distractor","L","banana_neg","Y","7/28/2015","13:11",1987
"559","072815-03",1,4,27,"cat_pos","cat_pos","cat_neg","negation","positive","target","distractor","L","cat_pos","Y","7/28/2015","13:11",3671
"560","072815-03",1,4,28,"bird_pos","bird_neg","bird_pos","negation","positive","distractor","target","R","bird_pos","Y","7/28/2015","13:11",1313
"561","072815-03",1,4,29,"teddybear_pos","teddybear_neg","teddybear_pos","negation","positive","distractor","target","R","teddybear_pos","Y","7/28/2015","13:11",1485
"562","072815-03",1,4,30,"cookie_neg","cookie_pos","cookie_neg","negation","negative","distractor","target","R","cookie_neg","Y","7/28/2015","13:11",3391
"563","072815-03",1,4,31,"apple_neg","apple_neg","apple_pos","negation","negative","target","distractor","L","apple_neg","Y","7/28/2015","13:11",1247
"564","072815-03",1,4,32,"cup_neg","cup_pos","cup_neg","negation","negative","distractor","target","R","cup_neg","Y","7/28/2015","13:11",1253
"565","072815-03",1,4,33,"dog_neg","dog_pos","dog_neg","negation","negative","distractor","target","L","dog_pos","N","7/28/2015","13:11",1498
"566","072815-03",1,4,34,"bicycle_pos","bicycle_neg","bicycle_pos","negation","positive","distractor","target","R","bicycle_pos","Y","7/28/2015","13:11",1093
"567","072815-03",1,4,35,"flower_neg","flower_neg","flower_pos","negation","negative","target","distractor","R","flower_pos","N","7/28/2015","13:11",1028
"568","072815-03",1,4,36,"lamp_pos","lamp_neg","lamp_pos","negation","positive","distractor","target","R","lamp_pos","Y","7/28/2015","13:11",1753
"569","072815-03",1,4,37,"teddybear_pos","teddybear_neg","teddybear_pos","negation","positive","distractor","target","R","teddybear_pos","Y","7/28/2015","13:11",1281
"570","072815-03",1,4,38,"flower_pos","flower_pos","flower_neg","negation","positive","target","distractor","L","flower_pos","Y","7/28/2015","13:11",1071
"571","072815-03",1,4,39,"cat_pos","cat_neg","cat_pos","negation","positive","distractor","target","R","cat_pos","Y","7/28/2015","13:11",1427
"572","072815-03",1,4,40,"car_pos","car_neg","car_pos","negation","positive","distractor","target","R","car_pos","Y","7/28/2015","13:11",1225
"573","072815-03",1,4,41,"lamp_pos","lamp_neg","lamp_pos","negation","positive","distractor","target","R","lamp_pos","Y","7/28/2015","13:11",1244
"574","072815-03",1,4,42,"cup_pos","cup_neg","cup_pos","negation","positive","distractor","target","R","cup_pos","Y","7/28/2015","13:11",935
"575","072815-03",1,4,43,"bicycle_neg","bicycle_pos","bicycle_neg","negation","negative","distractor","target","R","bicycle_neg","Y","7/28/2015","13:11",1678
"576","072815-03",1,4,44,"bird_neg","bird_pos","bird_neg","negation","negative","distractor","target","R","bird_neg","Y","7/28/2015","13:11",1343
"577","072815-03",1,4,45,"dog_neg","dog_pos","dog_neg","negation","negative","distractor","target","R","dog_neg","Y","7/28/2015","13:11",2019
"578","072815-03",1,4,46,"banana_neg","banana_pos","banana_neg","negation","negative","distractor","target","R","banana_neg","Y","7/28/2015","13:11",1189
"579","072815-03",1,4,47,"cookie_neg","cookie_pos","cookie_neg","negation","negative","distractor","target","R","cookie_neg","Y","7/28/2015","13:11",1123
"580","072815-03",1,4,48,"apple_neg","apple_pos","apple_neg","negation","negative","distractor","target","R","apple_neg","Y","7/28/2015","13:11",730.999999999998
"581","072815-03",1,4,49,"cup_pos","cup_pos","cup_neg","negation","positive","target","distractor","L","cup_pos","Y","7/28/2015","13:11",1617
"582","072815-03",1,4,50,"teddybear_neg","teddybear_pos","teddybear_neg","negation","negative","distractor","target","R","teddybear_neg","Y","7/28/2015","13:11",1737
"583","072815-03",1,4,51,"car_pos","car_neg","car_pos","negation","positive","distractor","target","R","car_pos","Y","7/28/2015","13:11",1214
"584","072815-03",1,4,52,"apple_neg","apple_neg","apple_pos","negation","negative","target","distractor","R","apple_pos","N","7/28/2015","13:11",1291
"585","072815-03",1,4,53,"dog_pos","dog_pos","dog_neg","negation","positive","target","distractor","L","dog_pos","Y","7/28/2015","13:11",2251
"586","072815-03",1,4,54,"banana_pos","banana_neg","banana_pos","negation","positive","distractor","target","R","banana_pos","Y","7/28/2015","13:11",1397
"587","072815-03",1,4,55,"bird_pos","bird_pos","bird_neg","negation","positive","target","distractor","L","bird_pos","Y","7/28/2015","13:11",1072
"588","072815-03",1,4,56,"lamp_pos","lamp_pos","lamp_neg","negation","positive","target","distractor","L","lamp_pos","Y","7/28/2015","13:11",1436
"589","072815-03",1,4,57,"bicycle_pos","bicycle_neg","bicycle_pos","negation","positive","distractor","target","R","bicycle_pos","Y","7/28/2015","13:11",1081
"590","072815-03",1,4,58,"cat_neg","cat_pos","cat_neg","negation","negative","distractor","target","L","cat_pos","N","7/28/2015","13:11",1264
"591","072815-03",1,4,59,"flower_pos","flower_neg","flower_pos","negation","positive","distractor","target","R","flower_pos","Y","7/28/2015","13:11",2505
"592","072815-03",1,4,60,"cookie_neg","cookie_pos","cookie_neg","negation","negative","distractor","target","L","cookie_pos","N","7/28/2015","13:11",1768
"593","072815-04",2,5,1,"cat_implic","cat_implic","cat_control","implicature","implicature","target","distractor","L","cat_implic","Y","7/28/2015","13:54",3578
"594","072815-04",2,5,2,"bicycle_control","bicycle_foil","bicycle_control","implicature","unambiguous","distractor","target","R","bicycle_control","Y","7/28/2015","13:54",1747
"595","072815-04",2,5,3,"cup_implic","cup_implic","cup_control","implicature","implicature","target","distractor","R","cup_control","N","7/28/2015","13:54",1517
"596","072815-04",2,5,4,"teddybear_implic","teddybear_implic","teddybear_control","implicature","implicature","target","distractor","R","teddybear_control","N","7/28/2015","13:54",1371
"597","072815-04",2,5,5,"bird_implic","bird_control","bird_implic","implicature","implicature","distractor","target","R","bird_implic","Y","7/28/2015","13:54",1326
"598","072815-04",2,5,6,"apple_control","apple_foil","apple_control","implicature","unambiguous","distractor","target","R","apple_control","Y","7/28/2015","13:54",957
"599","072815-04",2,5,7,"dog_control","dog_control","dog_foil","implicature","unambiguous","target","distractor","L","dog_control","Y","7/28/2015","13:54",1553
"600","072815-04",2,5,8,"cookie_control","cookie_control","cookie_foil","implicature","unambiguous","target","distractor","L","cookie_control","Y","7/28/2015","13:54",1217
"601","072815-04",2,5,9,"banana_control","banana_control","banana_foil","implicature","unambiguous","target","distractor","L","banana_control","Y","7/28/2015","13:54",1224
"602","072815-04",2,5,10,"flower_control","flower_control","flower_foil","implicature","unambiguous","target","distractor","L","flower_control","Y","7/28/2015","13:54",1226
"603","072815-04",2,5,11,"car_implic","car_implic","car_control","implicature","implicature","target","distractor","L","car_implic","Y","7/28/2015","13:54",1647
"604","072815-04",2,5,12,"lamp_implic","lamp_implic","lamp_control","implicature","implicature","target","distractor","R","lamp_control","N","7/28/2015","13:54",1663
"605","072815-04",2,5,13,"apple_control","apple_foil","apple_control","implicature","unambiguous","distractor","target","R","apple_control","Y","7/28/2015","13:54",1410
"606","072815-04",2,5,14,"dog_implic","dog_implic","dog_control","implicature","implicature","target","distractor","R","dog_control","N","7/28/2015","13:54",1264
"607","072815-04",2,5,15,"cup_implic","cup_control","cup_implic","implicature","implicature","distractor","target","R","cup_implic","Y","7/28/2015","13:54",1152
"608","072815-04",2,5,16,"teddybear_control","teddybear_foil","teddybear_control","implicature","unambiguous","distractor","target","R","teddybear_control","Y","7/28/2015","13:54",984
"609","072815-04",2,5,17,"bicycle_implic","bicycle_control","bicycle_implic","implicature","implicature","distractor","target","R","bicycle_implic","Y","7/28/2015","13:54",932
"610","072815-04",2,5,18,"flower_implic","flower_implic","flower_control","implicature","implicature","target","distractor","R","flower_control","N","7/28/2015","13:54",904
"611","072815-04",2,5,19,"cat_control","cat_foil","cat_control","implicature","unambiguous","distractor","target","R","cat_control","Y","7/28/2015","13:54",2505
"612","072815-04",2,5,20,"car_control","car_foil","car_control","implicature","unambiguous","distractor","target","R","car_control","Y","7/28/2015","13:54",1255
"613","072815-04",2,5,21,"lamp_implic","lamp_implic","lamp_control","implicature","implicature","target","distractor","R","lamp_control","N","7/28/2015","13:54",1066
"614","072815-04",2,5,22,"banana_control","banana_control","banana_foil","implicature","unambiguous","target","distractor","L","banana_control","Y","7/28/2015","13:54",1270
"615","072815-04",2,5,23,"bird_implic","bird_implic","bird_control","implicature","implicature","target","distractor","R","bird_control","N","7/28/2015","13:54",1076
"616","072815-04",2,5,24,"cookie_implic","cookie_implic","cookie_control","implicature","implicature","target","distractor","R","cookie_control","N","7/28/2015","13:54",2129
"617","072815-04",2,5,25,"dog_implic","dog_control","dog_implic","implicature","implicature","distractor","target","R","dog_implic","Y","7/28/2015","13:54",1259
"618","072815-04",2,5,26,"lamp_implic","lamp_control","lamp_implic","implicature","implicature","distractor","target","R","lamp_implic","Y","7/28/2015","13:54",1017
"619","072815-04",2,5,27,"cookie_control","cookie_foil","cookie_control","implicature","unambiguous","distractor","target","R","cookie_control","Y","7/28/2015","13:54",924
"620","072815-04",2,5,28,"car_control","car_control","car_foil","implicature","unambiguous","target","distractor","R","car_foil","N","7/28/2015","13:54",1021
"621","072815-04",2,5,29,"cup_implic","cup_implic","cup_control","implicature","implicature","target","distractor","R","cup_control","N","7/28/2015","13:54",1099
"622","072815-04",2,5,30,"bicycle_implic","bicycle_control","bicycle_implic","implicature","implicature","distractor","target","R","bicycle_implic","Y","7/28/2015","13:54",1080
"623","072815-04",2,5,31,"teddybear_control","teddybear_control","teddybear_foil","implicature","unambiguous","target","distractor","L","teddybear_control","Y","7/28/2015","13:54",1181
"624","072815-04",2,5,32,"flower_implic","flower_implic","flower_control","implicature","implicature","target","distractor","R","flower_control","N","7/28/2015","13:54",1725
"625","072815-04",2,5,33,"cat_control","cat_control","cat_foil","implicature","unambiguous","target","distractor","L","cat_control","Y","7/28/2015","13:54",1641
"626","072815-04",2,5,34,"apple_implic","apple_implic","apple_control","implicature","implicature","target","distractor","R","apple_control","N","7/28/2015","13:54",918
"627","072815-04",2,5,35,"banana_implic","banana_control","banana_implic","implicature","implicature","distractor","target","R","banana_implic","Y","7/28/2015","13:54",1211
"628","072815-04",2,5,36,"bird_control","bird_foil","bird_control","implicature","unambiguous","distractor","target","R","bird_control","Y","7/28/2015","13:54",1408
"629","072815-04",2,5,37,"teddybear_implic","teddybear_control","teddybear_implic","implicature","implicature","distractor","target","R","teddybear_implic","Y","7/28/2015","13:54",990
"630","072815-04",2,5,38,"cup_implic","cup_control","cup_implic","implicature","implicature","distractor","target","R","cup_implic","Y","7/28/2015","13:54",1229
"631","072815-04",2,5,39,"car_implic","car_control","car_implic","implicature","implicature","distractor","target","R","car_implic","Y","7/28/2015","13:54",1126
"632","072815-04",2,5,40,"banana_control","banana_foil","banana_control","implicature","unambiguous","distractor","target","R","banana_control","Y","7/28/2015","13:54",1420
"633","072815-04",2,5,41,"lamp_implic","lamp_implic","lamp_control","implicature","implicature","target","distractor","R","lamp_control","N","7/28/2015","13:54",1255
"634","072815-04",2,5,42,"apple_control","apple_foil","apple_control","implicature","unambiguous","distractor","target","R","apple_control","Y","7/28/2015","13:54",1499
"635","072815-04",2,5,43,"cookie_implic","cookie_control","cookie_implic","implicature","implicature","distractor","target","R","cookie_implic","Y","7/28/2015","13:54",1374
"636","072815-04",2,5,44,"cat_control","cat_control","cat_foil","implicature","unambiguous","target","distractor","L","cat_control","Y","7/28/2015","13:54",1426
