"","subid","list","game.order","trial.num","word","leftpic","rightpic","game","trial.type","leftpic.type","rightpic.type","side.chosen","pic.chosen","response","date","timestamp","rt","age","agegroup","gender","english"
"1","111015_1",1,2,35,"lamp_implic","lamp_control","lamp_implic","implicature","implicature","distractor","target","L","lamp_control","N","11/10/2015","13:10",1385,4.97,4,"F",100
"2","111015_1",1,2,34,"banana_inhib","banana_inhib","banana_pos","inhibition","inhib","target","distractor","L","banana_inhib","Y","11/10/2015","13:10",1721,4.97,4,"F",100
"3","111015_1",1,2,33,"car_control","car_control","car_foil","implicature","unambiguous","target","distractor","L","car_control","Y","11/10/2015","13:10",1511,4.97,4,"F",100
"4","111015_1",1,2,34,"cookie_implic","cookie_implic","cookie_control","implicature","implicature","target","distractor","R","cookie_control","N","11/10/2015","13:10",1220,4.97,4,"F",100
"5","111015_1",1,2,33,"banana_pos","banana_inhib","banana_pos","inhibition","control","distractor","target","R","banana_pos","Y","11/10/2015","13:10",969,4.97,4,"F",100
"6","111015_1",1,2,64,"lamp_pos","lamp_pos","lamp_inhib","inhibition","control","target","distractor","L","lamp_pos","Y","11/10/2015","13:10",1296,4.97,4,"F",100
"7","111015_1",1,2,14,"bicycle_neg","bicycle_neg","bicycle_pos","negation","negative","target","distractor","L","bicycle_neg","Y","11/10/2015","13:10",851.000000000001,4.97,4,"F",100
"8","111015_1",1,2,72,"bird_inhib","bird_inhib","bird_pos","inhibition","inhib","target","distractor","L","bird_inhib","Y","11/10/2015","13:10",1848,4.97,4,"F",100
"9","111015_1",1,2,32,"cup_control","cup_control","cup_foil","implicature","unambiguous","target","distractor","L","cup_control","Y","11/10/2015","13:10",1783,4.97,4,"F",100
"10","111015_1",1,2,74,"cup_pos","cup_inhib","cup_pos","inhibition","control","distractor","target","R","cup_pos","Y","11/10/2015","13:10",2003,4.97,4,"F",100
"11","111015_1",1,2,36,"dog_control","dog_foil","dog_control","implicature","unambiguous","distractor","target","R","dog_control","Y","11/10/2015","13:10",1185,4.97,4,"F",100
"12","111015_1",1,2,15,"cookie_pos","cookie_neg","cookie_pos","negation","positive","distractor","target","R","cookie_pos","Y","11/10/2015","13:10",1628,4.97,4,"F",100
"13","111015_1",1,2,32,"banana_pos","banana_inhib","banana_pos","inhibition","control","distractor","target","R","banana_pos","Y","11/10/2015","13:10",1593,4.97,4,"F",100
"14","111015_1",1,2,30,"teddybear_control","teddybear_foil","teddybear_control","implicature","unambiguous","distractor","target","R","teddybear_control","Y","11/10/2015","13:10",2812,4.97,4,"F",100
"15","111015_1",1,2,66,"bird_pos","bird_inhib","bird_pos","inhibition","control","distractor","target","R","bird_pos","Y","11/10/2015","13:10",1790,4.97,4,"F",100
"16","111015_1",1,2,37,"cookie_implic","cookie_implic","cookie_control","implicature","implicature","target","distractor","L","cookie_implic","Y","11/10/2015","13:10",944,4.97,4,"F",100
"17","111015_1",1,2,69,"bird_pos","bird_inhib","bird_pos","inhibition","control","distractor","target","R","bird_pos","Y","11/10/2015","13:10",735,4.97,4,"F",100
"18","111015_1",1,2,8,"bicycle_implic","bicycle_implic","bicycle_control","implicature","implicature","target","distractor","L","bicycle_implic","Y","11/10/2015","13:10",1328,4.97,4,"F",100
"19","111015_1",1,2,70,"bird_pos","bird_inhib","bird_pos","inhibition","control","distractor","target","R","bird_pos","Y","11/10/2015","13:10",1394,4.97,4,"F",100
"20","111015_1",1,2,63,"lamp_pos","lamp_inhib","lamp_pos","inhibition","control","distractor","target","L","lamp_inhib","N","11/10/2015","13:10",1003,4.97,4,"F",100
"21","111015_1",1,2,68,"bird_pos","bird_inhib","bird_pos","inhibition","control","distractor","target","R","bird_pos","Y","11/10/2015","13:10",774,4.97,4,"F",100
"22","111015_1",1,2,13,"flower_pos","flower_pos","flower_neg","negation","positive","target","distractor","R","flower_neg","N","11/10/2015","13:10",275,4.97,4,"F",100
"23","111015_1",1,2,4,"cat_control","cat_control","cat_foil","implicature","unambiguous","target","distractor","L","cat_control","Y","11/10/2015","13:10",1573,4.97,4,"F",100
"24","111015_1",1,2,73,"cup_pos","cup_inhib","cup_pos","inhibition","control","distractor","target","R","cup_pos","Y","11/10/2015","13:10",1322,4.97,4,"F",100
"25","111015_1",1,2,49,"cup_pos","cup_pos","cup_neg","negation","positive","target","distractor","L","cup_pos","Y","11/10/2015","13:10",293,4.97,4,"F",100
"26","111015_1",1,2,7,"dog_control","dog_foil","dog_control","implicature","unambiguous","distractor","target","R","dog_control","Y","11/10/2015","13:10",1440,4.97,4,"F",100
"27","111015_1",1,2,65,"lamp_inhib","lamp_pos","lamp_inhib","inhibition","inhib","distractor","target","R","lamp_inhib","Y","11/10/2015","13:10",1232,4.97,4,"F",100
"28","111015_1",1,2,2,"apple_pos","apple_pos","apple_inhib","inhibition","control","target","distractor","L","apple_pos","Y","11/10/2015","13:10",246,4.97,4,"F",100
"29","111015_1",1,2,31,"bicycle_implic","bicycle_control","bicycle_implic","implicature","implicature","distractor","target","R","bicycle_implic","Y","11/10/2015","13:10",2123,4.97,4,"F",100
"30","111015_1",1,2,71,"bird_pos","bird_inhib","bird_pos","inhibition","control","distractor","target","L","bird_inhib","N","11/10/2015","13:10",3482,4.97,4,"F",100
"31","111015_1",1,2,76,"cup_pos","cup_pos","cup_inhib","inhibition","control","target","distractor","L","cup_pos","Y","11/10/2015","13:10",2230,4.97,4,"F",100
"32","111015_1",1,2,9,"lamp_control","lamp_foil","lamp_control","implicature","unambiguous","distractor","target","R","lamp_control","Y","11/10/2015","13:10",1278,4.97,4,"F",100
"33","111015_1",1,2,5,"apple_pos","apple_pos","apple_inhib","inhibition","control","target","distractor","R","apple_inhib","N","11/10/2015","13:10",1875,4.97,4,"F",100
"34","111015_1",1,2,31,"banana_pos","banana_inhib","banana_pos","inhibition","control","distractor","target","R","banana_pos","Y","11/10/2015","13:10",1600,4.97,4,"F",100
"35","111015_1",1,2,3,"apple_implic","apple_control","apple_implic","implicature","implicature","distractor","target","R","apple_implic","Y","11/10/2015","13:10",1888,4.97,4,"F",100
"36","111015_1",1,2,12,"banana_pos","banana_neg","banana_pos","negation","positive","distractor","target","R","banana_pos","Y","11/10/2015","13:10",1228,4.97,4,"F",100
"37","111015_1",1,2,46,"banana_neg","banana_pos","banana_neg","negation","negative","distractor","target","L","banana_pos","N","11/10/2015","13:10",741.000000000001,4.97,4,"F",100
"38","111015_1",1,2,7,"bicycle_pos","bicycle_pos","bicycle_neg","negation","positive","target","distractor","L","bicycle_pos","Y","11/10/2015","13:10",1322,4.97,4,"F",100
"39","111015_1",1,2,41,"lamp_neg","lamp_neg","lamp_pos","negation","negative","target","distractor","R","lamp_pos","N","11/10/2015","13:10",742.999999999997,4.97,4,"F",100
"40","111015_1",1,2,6,"teddybear_implic","teddybear_implic","teddybear_control","implicature","implicature","target","distractor","L","teddybear_implic","Y","11/10/2015","13:10",1549,4.97,4,"F",100
"41","111015_1",1,2,29,"flower_control","flower_foil","flower_control","implicature","unambiguous","distractor","target","R","flower_control","Y","11/10/2015","13:10",3588,4.97,4,"F",100
"42","111015_1",1,2,7,"car_pos","car_pos","car_inhib","inhibition","control","target","distractor","R","car_inhib","N","11/10/2015","13:10",1868,4.97,4,"F",100
"43","111015_1",1,2,8,"car_pos","car_pos","car_inhib","inhibition","control","target","distractor","R","car_inhib","N","11/10/2015","13:10",1743,4.97,4,"F",100
"44","111015_1",1,2,48,"apple_pos","apple_pos","apple_neg","negation","positive","target","distractor","L","apple_pos","Y","11/10/2015","13:10",1490,4.97,4,"F",100
"45","111015_1",1,2,67,"bird_pos","bird_inhib","bird_pos","inhibition","control","distractor","target","R","bird_pos","Y","11/10/2015","13:10",1498,4.97,4,"F",100
"46","111015_1",1,2,38,"bird_implic","bird_implic","bird_control","implicature","implicature","target","distractor","R","bird_control","N","11/10/2015","13:10",753,4.97,4,"F",100
"47","111015_1",1,2,1,"banana_control","banana_control","banana_foil","implicature","unambiguous","target","distractor","L","banana_control","Y","11/10/2015","13:10",3420,4.97,4,"F",100
"48","111015_1",1,2,28,"cat_implic","cat_control","cat_implic","implicature","implicature","distractor","target","R","cat_implic","Y","11/10/2015","13:10",2246,4.97,4,"F",100
"49","111015_1",1,2,4,"apple_pos","apple_pos","apple_inhib","inhibition","control","target","distractor","L","apple_pos","Y","11/10/2015","13:10",49,4.97,4,"F",100
"50","111015_1",1,2,58,"cat_pos","cat_pos","cat_neg","negation","positive","target","distractor","L","cat_pos","Y","11/10/2015","13:10",2307,4.97,4,"F",100
"51","111015_1",1,2,59,"flower_pos","flower_neg","flower_pos","negation","positive","distractor","target","R","flower_pos","Y","11/10/2015","13:10",1238,4.97,4,"F",100
"52","111015_1",1,2,60,"cookie_neg","cookie_pos","cookie_neg","negation","negative","distractor","target","R","cookie_neg","Y","11/10/2015","13:10",1758,4.97,4,"F",100
"53","111015_1",1,2,41,"car_control","car_foil","car_control","implicature","unambiguous","distractor","target","L","car_foil","N","11/10/2015","13:10",167,4.97,4,"F",100
"54","111015_1",1,2,6,"apple_inhib","apple_pos","apple_inhib","inhibition","inhib","distractor","target","L","apple_pos","N","11/10/2015","13:10",3373,4.97,4,"F",100
"55","111015_1",1,2,44,"bird_neg","bird_neg","bird_pos","negation","negative","target","distractor","L","bird_neg","Y","11/10/2015","13:10",767,4.97,4,"F",100
"56","111015_1",1,2,45,"dog_neg","dog_neg","dog_pos","negation","negative","target","distractor","R","dog_pos","N","11/10/2015","13:10",1209,4.97,4,"F",100
"57","111015_1",1,2,47,"cookie_pos","cookie_pos","cookie_neg","negation","positive","target","distractor","R","cookie_neg","N","11/10/2015","13:10",2418,4.97,4,"F",100
"58","111015_1",1,2,75,"cup_pos","cup_pos","cup_inhib","inhibition","control","target","distractor","L","cup_pos","Y","11/10/2015","13:10",1405,4.97,4,"F",100
"59","111015_1",1,2,51,"car_pos","car_pos","car_neg","negation","positive","target","distractor","L","car_pos","Y","11/10/2015","13:10",45,4.97,4,"F",100
"60","111015_1",1,2,78,"cup_pos","cup_inhib","cup_pos","inhibition","control","distractor","target","R","cup_pos","Y","11/10/2015","13:10",1447,4.97,4,"F",100
"61","111015_1",1,2,2,"cup_control","cup_control","cup_foil","implicature","unambiguous","target","distractor","L","cup_control","Y","11/10/2015","13:10",2555,4.97,4,"F",100
"62","111015_1",1,2,29,"banana_pos","banana_pos","banana_inhib","inhibition","control","target","distractor","L","banana_pos","Y","11/10/2015","13:10",1161,4.97,4,"F",100
"63","111015_1",1,2,28,"banana_pos","banana_pos","banana_inhib","inhibition","control","target","distractor","R","banana_inhib","N","11/10/2015","13:10",1380,4.97,4,"F",100
"64","111015_1",1,2,11,"flower_pos","flower_neg","flower_pos","negation","positive","distractor","target","L","flower_neg","N","11/10/2015","13:10",962,4.97,4,"F",100
"65","111015_1",1,2,62,"lamp_pos","lamp_pos","lamp_inhib","inhibition","control","target","distractor","L","lamp_pos","Y","11/10/2015","13:10",1165,4.97,4,"F",100
"66","111015_1",1,2,40,"car_neg","car_pos","car_neg","negation","negative","distractor","target","L","car_pos","N","11/10/2015","13:10",849,4.97,4,"F",100
"67","111015_1",1,2,43,"bicycle_neg","bicycle_neg","bicycle_pos","negation","negative","target","distractor","R","bicycle_pos","N","11/10/2015","13:10",1174,4.97,4,"F",100
"68","111015_1",1,2,20,"cup_neg","cup_neg","cup_pos","negation","negative","target","distractor","L","cup_neg","Y","11/10/2015","13:10",799.000000000001,4.97,4,"F",100
"69","111015_1",1,2,44,"bicycle_control","bicycle_control","bicycle_foil","implicature","unambiguous","target","distractor","L","bicycle_control","Y","11/10/2015","13:10",1046,4.97,4,"F",100
"70","111015_1",1,2,45,"teddybear_control","teddybear_foil","teddybear_control","implicature","unambiguous","distractor","target","L","teddybear_foil","N","11/10/2015","13:10",296,4.97,4,"F",100
"71","111015_1",1,2,42,"cat_pos","cat_inhib","cat_pos","inhibition","control","distractor","target","R","cat_pos","Y","11/10/2015","13:10",2431,4.97,4,"F",100
"72","111015_1",1,2,11,"car_pos","car_inhib","car_pos","inhibition","control","distractor","target","L","car_inhib","N","11/10/2015","13:10",45,4.97,4,"F",100
"73","111015_1",1,2,50,"teddybear_pos","teddybear_pos","teddybear_neg","negation","positive","target","distractor","L","teddybear_pos","Y","11/10/2015","13:10",44,4.97,4,"F",100
"74","111015_1",1,2,79,"cup_inhib","cup_inhib","cup_pos","inhibition","inhib","target","distractor","L","cup_inhib","Y","11/10/2015","13:10",1739,4.97,4,"F",100
"75","111015_1",1,2,1,"apple_pos","apple_pos","apple_inhib","inhibition","control","target","distractor","L","apple_pos","Y","11/10/2015","13:10",1507,4.97,4,"F",100
"76","111015_1",1,2,57,"bicycle_neg","bicycle_pos","bicycle_neg","negation","negative","distractor","target","R","bicycle_neg","Y","11/10/2015","13:10",1614,4.97,4,"F",100
"77","111015_1",1,2,40,"lamp_implic","lamp_control","lamp_implic","implicature","implicature","distractor","target","L","lamp_control","N","11/10/2015","13:10",137,4.97,4,"F",100
"78","111015_1",1,2,3,"apple_pos","apple_pos","apple_inhib","inhibition","control","target","distractor","L","apple_pos","Y","11/10/2015","13:10",42,4.97,4,"F",100
"79","111015_1",1,2,56,"lamp_pos","lamp_pos","lamp_neg","negation","positive","target","distractor","L","lamp_pos","Y","11/10/2015","13:10",295,4.97,4,"F",100
"80","111015_1",1,2,5,"cookie_control","cookie_foil","cookie_control","implicature","unambiguous","distractor","target","R","cookie_control","Y","11/10/2015","13:10",1299,4.97,4,"F",100
"81","111015_1",1,2,61,"lamp_pos","lamp_pos","lamp_inhib","inhibition","control","target","distractor","L","lamp_pos","Y","11/10/2015","13:10",1403,4.97,4,"F",100
"82","111015_1",1,2,42,"cup_pos","cup_pos","cup_neg","negation","positive","target","distractor","L","cup_pos","Y","11/10/2015","13:10",1427,4.97,4,"F",100
"83","111015_1",1,2,41,"bicycle_inhib","bicycle_pos","bicycle_inhib","inhibition","inhib","distractor","target","R","bicycle_inhib","Y","11/10/2015","13:10",291,4.97,4,"F",100
"84","111015_1",1,2,16,"bird_control","bird_control","bird_foil","implicature","unambiguous","target","distractor","L","bird_control","Y","11/10/2015","13:10",1419,4.97,4,"F",100
"85","111015_1",1,2,21,"teddybear_neg","teddybear_neg","teddybear_pos","negation","negative","target","distractor","L","teddybear_neg","Y","11/10/2015","13:10",1910,4.97,4,"F",100
"86","111015_1",1,2,10,"car_pos","car_inhib","car_pos","inhibition","control","distractor","target","L","car_inhib","N","11/10/2015","13:10",297,4.97,4,"F",100
"87","111015_1",1,2,27,"apple_implic","apple_control","apple_implic","implicature","implicature","distractor","target","R","apple_implic","Y","11/10/2015","13:10",3572,4.97,4,"F",100
"88","111015_1",1,2,30,"banana_pos","banana_pos","banana_inhib","inhibition","control","target","distractor","L","banana_pos","Y","11/10/2015","13:10",1929,4.97,4,"F",100
"89","111015_1",1,2,26,"teddybear_pos","teddybear_inhib","teddybear_pos","inhibition","control","distractor","target","R","teddybear_pos","Y","11/10/2015","13:10",1425,4.97,4,"F",100
"90","111015_1",1,2,27,"teddybear_inhib","teddybear_inhib","teddybear_pos","inhibition","inhib","target","distractor","L","teddybear_inhib","Y","11/10/2015","13:10",1166,4.97,4,"F",100
"91","111015_1",1,2,10,"bird_neg","bird_pos","bird_neg","negation","negative","distractor","target","R","bird_neg","Y","11/10/2015","13:10",696,4.97,4,"F",100
"92","111015_1",1,2,6,"cup_neg","cup_neg","cup_pos","negation","negative","target","distractor","R","cup_pos","N","11/10/2015","13:10",1579,4.97,4,"F",100
"93","111015_1",1,2,42,"cat_control","cat_control","cat_foil","implicature","unambiguous","target","distractor","L","cat_control","Y","11/10/2015","13:10",122,4.97,4,"F",100
"94","111015_1",1,2,43,"flower_implic","flower_implic","flower_control","implicature","implicature","target","distractor","L","flower_implic","Y","11/10/2015","13:10",129,4.97,4,"F",100
"95","111015_1",1,2,19,"bird_pos","bird_neg","bird_pos","negation","positive","distractor","target","R","bird_pos","Y","11/10/2015","13:10",692,4.97,4,"F",100
"96","111015_1",1,2,17,"lamp_pos","lamp_neg","lamp_pos","negation","positive","distractor","target","R","lamp_pos","Y","11/10/2015","13:10",1088,4.97,4,"F",100
"97","111015_1",1,2,13,"car_inhib","car_inhib","car_pos","inhibition","inhib","target","distractor","L","car_inhib","Y","11/10/2015","13:10",4714,4.97,4,"F",100
"98","111015_1",1,2,17,"cat_implic","cat_implic","cat_control","implicature","implicature","target","distractor","L","cat_implic","Y","11/10/2015","13:10",1688,4.97,4,"F",100
"99","111015_1",1,2,46,"cup_implic","cup_implic","cup_control","implicature","implicature","target","distractor","L","cup_implic","Y","11/10/2015","13:10",46,4.97,4,"F",100
"100","111015_1",1,2,77,"cup_pos","cup_inhib","cup_pos","inhibition","control","distractor","target","L","cup_inhib","N","11/10/2015","13:10",1129,4.97,4,"F",100
"101","111015_1",1,2,53,"dog_pos","dog_neg","dog_pos","negation","positive","distractor","target","L","dog_neg","N","11/10/2015","13:10",1355,4.97,4,"F",100
"102","111015_1",1,2,35,"bicycle_pos","bicycle_pos","bicycle_inhib","inhibition","control","target","distractor","L","bicycle_pos","Y","11/10/2015","13:10",2183,4.97,4,"F",100
"103","111015_1",1,2,39,"banana_implic","banana_control","banana_implic","implicature","implicature","distractor","target","R","banana_implic","Y","11/10/2015","13:10",518,4.97,4,"F",100
"104","111015_1",1,2,55,"bird_pos","bird_pos","bird_neg","negation","positive","target","distractor","L","bird_pos","Y","11/10/2015","13:10",899,4.97,4,"F",100
"105","111015_1",1,2,38,"bicycle_pos","bicycle_inhib","bicycle_pos","inhibition","control","distractor","target","R","bicycle_pos","Y","11/10/2015","13:10",4216,4.97,4,"F",100
"106","111015_1",1,2,39,"cat_neg","cat_pos","cat_neg","negation","negative","distractor","target","R","cat_neg","Y","11/10/2015","13:10",936.000000000001,4.97,4,"F",100
"107","111015_1",1,2,40,"bicycle_pos","bicycle_inhib","bicycle_pos","inhibition","control","distractor","target","R","bicycle_pos","Y","11/10/2015","13:10",2228,4.97,4,"F",100
"108","111015_1",1,2,18,"apple_pos","apple_pos","apple_neg","negation","positive","target","distractor","L","apple_pos","Y","11/10/2015","13:10",1069,4.97,4,"F",100
"109","111015_1",1,2,15,"dog_pos","dog_pos","dog_inhib","inhibition","control","target","distractor","L","dog_pos","Y","11/10/2015","13:10",3047,4.97,4,"F",100
"110","111015_1",1,2,44,"cat_pos","cat_pos","cat_inhib","inhibition","control","target","distractor","R","cat_inhib","N","11/10/2015","13:10",1522,4.97,4,"F",100
"111","111015_1",1,2,16,"dog_pos","dog_inhib","dog_pos","inhibition","control","distractor","target","L","dog_inhib","N","11/10/2015","13:10",2217,4.97,4,"F",100
"112","111015_1",1,2,18,"cookie_implic","cookie_implic","cookie_control","implicature","implicature","target","distractor","R","cookie_control","N","11/10/2015","13:10",909,4.97,4,"F",100
"113","111015_1",1,2,47,"dog_implic","dog_control","dog_implic","implicature","implicature","distractor","target","L","dog_control","N","11/10/2015","13:10",45,4.97,4,"F",100
"114","111015_1",1,2,26,"banana_control","banana_foil","banana_control","implicature","unambiguous","distractor","target","L","banana_foil","N","11/10/2015","13:10",1627,4.97,4,"F",100
"115","111015_1",1,2,24,"teddybear_control","teddybear_control","teddybear_foil","implicature","unambiguous","target","distractor","L","teddybear_control","Y","11/10/2015","13:10",3027,4.97,4,"F",100
"116","111015_1",1,2,5,"car_neg","car_neg","car_pos","negation","negative","target","distractor","L","car_neg","Y","11/10/2015","13:10",3115,4.97,4,"F",100
"117","111015_1",1,2,9,"apple_pos","apple_neg","apple_pos","negation","positive","distractor","target","L","apple_neg","N","11/10/2015","13:10",913,4.97,4,"F",100
"118","111015_1",1,2,59,"cookie_inhib","cookie_pos","cookie_inhib","inhibition","inhib","distractor","target","R","cookie_inhib","Y","11/10/2015","13:10",1622,4.97,4,"F",100
"119","111015_1",1,2,39,"bicycle_pos","bicycle_inhib","bicycle_pos","inhibition","control","distractor","target","R","bicycle_pos","Y","11/10/2015","13:10",268,4.97,4,"F",100
"120","111015_1",1,2,37,"bicycle_pos","bicycle_inhib","bicycle_pos","inhibition","control","distractor","target","R","bicycle_pos","Y","11/10/2015","13:10",1251,4.97,4,"F",100
"121","111015_1",1,2,14,"dog_pos","dog_inhib","dog_pos","inhibition","control","distractor","target","L","dog_inhib","N","11/10/2015","13:10",291,4.97,4,"F",100
"122","111015_1",1,2,12,"car_pos","car_pos","car_inhib","inhibition","control","target","distractor","R","car_inhib","N","11/10/2015","13:10",1575,4.97,4,"F",100
"123","111015_1",1,2,34,"bicycle_neg","bicycle_pos","bicycle_neg","negation","negative","distractor","target","L","bicycle_pos","N","11/10/2015","13:10",633.000000000001,4.97,4,"F",100
"124","111015_1",1,2,51,"flower_control","flower_foil","flower_control","implicature","unambiguous","distractor","target","R","flower_control","Y","11/10/2015","13:10",1058,4.97,4,"F",100
"125","111015_1",1,2,17,"dog_pos","dog_inhib","dog_pos","inhibition","control","distractor","target","R","dog_pos","Y","11/10/2015","13:10",1282,4.97,4,"F",100
"126","111015_1",1,2,22,"dog_neg","dog_neg","dog_pos","negation","negative","target","distractor","L","dog_neg","Y","11/10/2015","13:10",2252,4.97,4,"F",100
"127","111015_1",1,2,43,"cat_pos","cat_inhib","cat_pos","inhibition","control","distractor","target","L","cat_inhib","N","11/10/2015","13:10",1802,4.97,4,"F",100
"128","111015_1",1,2,12,"bird_implic","bird_implic","bird_control","implicature","implicature","target","distractor","R","bird_control","N","11/10/2015","13:10",1525,4.97,4,"F",100
"129","111015_1",1,2,8,"lamp_neg","lamp_neg","lamp_pos","negation","negative","target","distractor","R","lamp_pos","N","11/10/2015","13:10",818.999999999997,4.97,4,"F",100
"130","111015_1",1,2,54,"banana_neg","banana_neg","banana_pos","negation","negative","target","distractor","R","banana_pos","N","11/10/2015","13:10",702.000000000001,4.97,4,"F",100
"131","111015_1",1,2,52,"apple_neg","apple_neg","apple_pos","negation","negative","target","distractor","R","apple_pos","N","11/10/2015","13:10",1626,4.97,4,"F",100
"132","111015_1",1,2,60,"lamp_pos","lamp_pos","lamp_inhib","inhibition","control","target","distractor","L","lamp_pos","Y","11/10/2015","13:10",1609,4.97,4,"F",100
"133","111015_1",1,2,15,"flower_implic","flower_implic","flower_control","implicature","implicature","target","distractor","L","flower_implic","Y","11/10/2015","13:10",1060,4.97,4,"F",100
"134","111015_1",1,2,50,"car_control","car_control","car_foil","implicature","unambiguous","target","distractor","L","car_control","Y","11/10/2015","13:10",793,4.97,4,"F",100
"135","111015_1",1,2,35,"flower_pos","flower_neg","flower_pos","negation","positive","distractor","target","R","flower_pos","Y","11/10/2015","13:10",1106,4.97,4,"F",100
"136","111015_1",1,2,51,"flower_pos","flower_pos","flower_inhib","inhibition","control","target","distractor","L","flower_pos","Y","11/10/2015","13:10",1942,4.97,4,"F",100
"137","111015_1",1,2,32,"cup_neg","cup_pos","cup_neg","negation","negative","distractor","target","L","cup_pos","N","11/10/2015","13:10",791.000000000001,4.97,4,"F",100
"138","111015_1",1,2,53,"cookie_implic","cookie_implic","cookie_control","implicature","implicature","target","distractor","R","cookie_control","N","11/10/2015","13:10",802,4.97,4,"F",100
"139","111015_1",1,2,18,"dog_pos","dog_pos","dog_inhib","inhibition","control","target","distractor","L","dog_pos","Y","11/10/2015","13:10",1864,4.97,4,"F",100
"140","111015_1",1,2,19,"apple_control","apple_foil","apple_control","implicature","unambiguous","distractor","target","L","apple_foil","N","11/10/2015","13:10",1215,4.97,4,"F",100
"141","111015_1",1,2,25,"bird_control","bird_foil","bird_control","implicature","unambiguous","distractor","target","R","bird_control","Y","11/10/2015","13:10",2003,4.97,4,"F",100
"142","111015_1",1,2,13,"bicycle_control","bicycle_control","bicycle_foil","implicature","unambiguous","target","distractor","L","bicycle_control","Y","11/10/2015","13:10",1456,4.97,4,"F",100
"143","111015_1",1,2,23,"cup_control","cup_foil","cup_control","implicature","unambiguous","distractor","target","L","cup_foil","N","11/10/2015","13:10",4029,4.97,4,"F",100
"144","111015_1",1,2,3,"teddybear_neg","teddybear_pos","teddybear_neg","negation","negative","distractor","target","R","teddybear_neg","Y","11/10/2015","13:10",1992,4.97,4,"F",100
"145","111015_1",1,2,36,"bicycle_pos","bicycle_inhib","bicycle_pos","inhibition","control","distractor","target","R","bicycle_pos","Y","11/10/2015","13:10",2655,4.97,4,"F",100
"146","111015_1",1,2,33,"dog_neg","dog_neg","dog_pos","negation","negative","target","distractor","R","dog_pos","N","11/10/2015","13:10",1014,4.97,4,"F",100
"147","111015_1",1,2,36,"lamp_neg","lamp_neg","lamp_pos","negation","negative","target","distractor","L","lamp_neg","Y","11/10/2015","13:10",1564,4.97,4,"F",100
"148","111015_1",1,2,52,"flower_pos","flower_inhib","flower_pos","inhibition","control","distractor","target","R","flower_pos","Y","11/10/2015","13:10",1975,4.97,4,"F",100
"149","111015_1",1,2,49,"flower_pos","flower_pos","flower_inhib","inhibition","control","target","distractor","L","flower_pos","Y","11/10/2015","13:10",1524,4.97,4,"F",100
"150","111015_1",1,2,31,"apple_neg","apple_pos","apple_neg","negation","negative","distractor","target","R","apple_neg","Y","11/10/2015","13:10",791.999999999998,4.97,4,"F",100
"151","111015_1",1,2,45,"cat_pos","cat_inhib","cat_pos","inhibition","control","distractor","target","L","cat_inhib","N","11/10/2015","13:10",1387,4.97,4,"F",100
"152","111015_1",1,2,54,"dog_control","dog_foil","dog_control","implicature","unambiguous","distractor","target","L","dog_foil","N","11/10/2015","13:10",1105,4.97,4,"F",100
"153","111015_1",1,2,55,"apple_implic","apple_implic","apple_control","implicature","implicature","target","distractor","R","apple_control","N","11/10/2015","13:10",637,4.97,4,"F",100
"154","111015_1",1,2,14,"dog_implic","dog_implic","dog_control","implicature","implicature","target","distractor","L","dog_implic","Y","11/10/2015","13:10",1602,4.97,4,"F",100
"155","111015_1",1,2,25,"teddybear_pos","teddybear_pos","teddybear_inhib","inhibition","control","target","distractor","L","teddybear_pos","Y","11/10/2015","13:10",1432,4.97,4,"F",100
"156","111015_1",1,2,4,"cookie_pos","cookie_neg","cookie_pos","negation","positive","distractor","target","L","cookie_neg","N","11/10/2015","13:10",1706,4.97,4,"F",100
"157","111015_1",1,2,11,"flower_control","flower_control","flower_foil","implicature","unambiguous","target","distractor","L","flower_control","Y","11/10/2015","13:10",2470,4.97,4,"F",100
"158","111015_1",1,2,16,"cat_pos","cat_pos","cat_neg","negation","positive","target","distractor","L","cat_pos","Y","11/10/2015","13:10",1593,4.97,4,"F",100
"159","111015_1",1,2,37,"teddybear_pos","teddybear_neg","teddybear_pos","negation","positive","distractor","target","R","teddybear_pos","Y","11/10/2015","13:10",1572,4.97,4,"F",100
"160","111015_1",1,2,55,"cookie_pos","cookie_pos","cookie_inhib","inhibition","control","target","distractor","L","cookie_pos","Y","11/10/2015","13:10",1389,4.97,4,"F",100
"161","111015_1",1,2,50,"flower_pos","flower_pos","flower_inhib","inhibition","control","target","distractor","L","flower_pos","Y","11/10/2015","13:10",1638,4.97,4,"F",100
"162","111015_1",1,2,47,"cat_inhib","cat_inhib","cat_pos","inhibition","inhib","target","distractor","L","cat_inhib","Y","11/10/2015","13:10",1861,4.97,4,"F",100
"163","111015_1",1,2,27,"cat_pos","cat_pos","cat_neg","negation","positive","target","distractor","R","cat_neg","N","11/10/2015","13:10",1037,4.97,4,"F",100
"164","111015_1",1,2,29,"teddybear_pos","teddybear_neg","teddybear_pos","negation","positive","distractor","target","R","teddybear_pos","Y","11/10/2015","13:10",992,4.97,4,"F",100
"165","111015_1",1,2,52,"banana_implic","banana_implic","banana_control","implicature","implicature","target","distractor","L","banana_implic","Y","11/10/2015","13:10",1525,4.97,4,"F",100
"166","111015_1",1,2,22,"car_control","car_control","car_foil","implicature","unambiguous","target","distractor","R","car_foil","N","11/10/2015","13:10",802,4.97,4,"F",100
"167","111015_1",1,2,19,"dog_pos","dog_inhib","dog_pos","inhibition","control","distractor","target","R","dog_pos","Y","11/10/2015","13:10",1438,4.97,4,"F",100
"168","111015_1",1,2,48,"apple_control","apple_control","apple_foil","implicature","unambiguous","target","distractor","L","apple_control","Y","11/10/2015","13:10",47,4.97,4,"F",100
"169","111015_1",1,2,10,"car_implic","car_implic","car_control","implicature","implicature","target","distractor","L","car_implic","Y","11/10/2015","13:10",1184,4.97,4,"F",100
"170","111015_1",1,2,59,"bicycle_control","bicycle_control","bicycle_foil","implicature","unambiguous","target","distractor","R","bicycle_foil","N","11/10/2015","13:10",931,4.97,4,"F",100
"171","111015_1",1,2,38,"flower_neg","flower_pos","flower_neg","negation","negative","distractor","target","L","flower_pos","N","11/10/2015","13:10",848,4.97,4,"F",100
"172","111015_1",1,2,56,"cookie_pos","cookie_inhib","cookie_pos","inhibition","control","distractor","target","R","cookie_pos","Y","11/10/2015","13:10",2160,4.97,4,"F",100
"173","111015_1",1,2,53,"flower_inhib","flower_pos","flower_inhib","inhibition","inhib","distractor","target","R","flower_inhib","Y","11/10/2015","13:10",1623,4.97,4,"F",100
"174","111015_1",1,2,28,"bird_neg","bird_pos","bird_neg","negation","negative","distractor","target","L","bird_pos","N","11/10/2015","13:10",773,4.97,4,"F",100
"175","111015_1",1,2,46,"cat_pos","cat_inhib","cat_pos","inhibition","control","distractor","target","R","cat_pos","Y","11/10/2015","13:10",1312,4.97,4,"F",100
"176","111015_1",1,2,48,"flower_pos","flower_inhib","flower_pos","inhibition","control","distractor","target","R","flower_pos","Y","11/10/2015","13:10",1655,4.97,4,"F",100
"177","111015_1",1,2,30,"cookie_neg","cookie_neg","cookie_pos","negation","negative","target","distractor","L","cookie_neg","Y","11/10/2015","13:10",1270,4.97,4,"F",100
"178","111015_1",1,2,2,"cat_neg","cat_pos","cat_neg","negation","negative","distractor","target","L","cat_pos","N","11/10/2015","13:10",1506,4.97,4,"F",100
"179","111015_1",1,2,9,"car_pos","car_pos","car_inhib","inhibition","control","target","distractor","L","car_pos","Y","11/10/2015","13:10",2003,4.97,4,"F",100
"180","111015_1",1,2,49,"lamp_implic","lamp_control","lamp_implic","implicature","implicature","distractor","target","R","lamp_implic","Y","11/10/2015","13:10",1024,4.97,4,"F",100
"181","111015_1",1,2,20,"dog_inhib","dog_inhib","dog_pos","inhibition","inhib","target","distractor","L","dog_inhib","Y","11/10/2015","13:10",2662,4.97,4,"F",100
"182","111015_1",1,2,22,"teddybear_pos","teddybear_pos","teddybear_inhib","inhibition","control","target","distractor","L","teddybear_pos","Y","11/10/2015","13:10",1441,4.97,4,"F",100
"183","111015_1",1,2,24,"teddybear_pos","teddybear_inhib","teddybear_pos","inhibition","control","distractor","target","R","teddybear_pos","Y","11/10/2015","13:10",1684,4.97,4,"F",100
"184","111015_1",1,2,21,"banana_implic","banana_control","banana_implic","implicature","implicature","distractor","target","L","banana_control","N","11/10/2015","13:10",1765,4.97,4,"F",100
"185","111015_1",1,2,54,"cookie_pos","cookie_pos","cookie_inhib","inhibition","control","target","distractor","L","cookie_pos","Y","11/10/2015","13:10",1644,4.97,4,"F",100
"186","111015_1",1,2,56,"bird_control","bird_control","bird_foil","implicature","unambiguous","target","distractor","L","bird_control","Y","11/10/2015","13:10",395,4.97,4,"F",100
"187","111015_1",1,2,24,"car_pos","car_neg","car_pos","negation","positive","distractor","target","L","car_neg","N","11/10/2015","13:10",957,4.97,4,"F",100
"188","111015_1",1,2,57,"teddybear_implic","teddybear_implic","teddybear_control","implicature","implicature","target","distractor","R","teddybear_control","N","11/10/2015","13:10",751,4.97,4,"F",100
"189","111015_1",1,2,58,"cookie_pos","cookie_pos","cookie_inhib","inhibition","control","target","distractor","L","cookie_pos","Y","11/10/2015","13:10",1904,4.97,4,"F",100
"190","111015_1",1,2,23,"teddybear_pos","teddybear_pos","teddybear_inhib","inhibition","control","target","distractor","L","teddybear_pos","Y","11/10/2015","13:10",1619,4.97,4,"F",100
"191","111015_1",1,2,58,"cup_implic","cup_implic","cup_control","implicature","implicature","target","distractor","L","cup_implic","Y","11/10/2015","13:10",1347,4.97,4,"F",100
"192","111015_1",1,2,60,"cat_implic","cat_control","cat_implic","implicature","implicature","distractor","target","L","cat_control","N","11/10/2015","13:10",1361,4.97,4,"F",100
"193","111015_1",1,2,1,"dog_pos","dog_neg","dog_pos","negation","positive","distractor","target","R","dog_pos","Y","11/10/2015","13:10",1796,4.97,4,"F",100
"194","111015_1",1,2,23,"banana_pos","banana_neg","banana_pos","negation","positive","distractor","target","R","banana_pos","Y","11/10/2015","13:10",956,4.97,4,"F",100
"195","111015_1",1,2,57,"cookie_pos","cookie_pos","cookie_inhib","inhibition","control","target","distractor","L","cookie_pos","Y","11/10/2015","13:10",1652,4.97,4,"F",100
"196","111015_1",1,2,25,"car_neg","car_neg","car_pos","negation","negative","target","distractor","R","car_pos","N","11/10/2015","13:10",982,4.97,4,"F",100
"197","111015_1",1,2,20,"lamp_implic","lamp_implic","lamp_control","implicature","implicature","target","distractor","R","lamp_control","N","11/10/2015","13:10",1282,4.97,4,"F",100
"198","111015_1",1,2,26,"banana_pos","banana_neg","banana_pos","negation","positive","distractor","target","L","banana_neg","N","11/10/2015","13:10",2413,4.97,4,"F",100
"199","111015_1",1,2,21,"teddybear_pos","teddybear_inhib","teddybear_pos","inhibition","control","distractor","target","R","teddybear_pos","Y","11/10/2015","13:10",1684,4.97,4,"F",100
"200","111015_4",2,2,32,"flower_implic","flower_implic","flower_control","implicature","implicature","target","distractor","L","flower_implic","Y","11/10/2015","13:30",1785,5.03,5,"M",100
"201","111015_4",2,2,18,"lamp_pos","lamp_pos","lamp_inhib","inhibition","control","target","distractor","L","lamp_pos","Y","11/10/2015","13:30",1082,5.03,5,"M",100
"202","111015_4",2,2,31,"teddybear_control","teddybear_control","teddybear_foil","implicature","unambiguous","target","distractor","L","teddybear_control","Y","11/10/2015","13:30",2449,5.03,5,"M",100
"203","111015_4",2,2,30,"bicycle_control","bicycle_foil","bicycle_control","implicature","unambiguous","distractor","target","R","bicycle_control","Y","11/10/2015","13:30",1320,5.03,5,"M",100
"204","111015_4",2,2,7,"banana_pos","banana_neg","banana_pos","negation","positive","distractor","target","R","banana_pos","Y","11/10/2015","13:30",1431,5.03,5,"M",100
"205","111015_4",2,2,27,"cookie_control","cookie_control","cookie_foil","implicature","unambiguous","target","distractor","L","cookie_control","Y","11/10/2015","13:30",1536,5.03,5,"M",100
"206","111015_4",2,2,63,"dog_pos","dog_pos","dog_inhib","inhibition","control","target","distractor","L","dog_pos","Y","11/10/2015","13:30",1081,5.03,5,"M",100
"207","111015_4",2,2,29,"cup_implic","cup_control","cup_implic","implicature","implicature","distractor","target","R","cup_implic","Y","11/10/2015","13:30",2319,5.03,5,"M",100
"208","111015_4",2,2,26,"lamp_control","lamp_control","lamp_foil","implicature","unambiguous","target","distractor","L","lamp_control","Y","11/10/2015","13:30",1539,5.03,5,"M",100
"209","111015_4",2,2,65,"dog_pos","dog_pos","dog_inhib","inhibition","control","target","distractor","L","dog_pos","Y","11/10/2015","13:30",1216,5.03,5,"M",100
"210","111015_4",2,2,57,"teddybear_pos","teddybear_inhib","teddybear_pos","inhibition","control","distractor","target","R","teddybear_pos","Y","11/10/2015","13:30",822,5.03,5,"M",100
"211","111015_4",2,2,33,"cat_implic","cat_implic","cat_control","implicature","implicature","target","distractor","L","cat_implic","Y","11/10/2015","13:30",1637,5.03,5,"M",100
"212","111015_4",2,2,40,"teddybear_pos","teddybear_neg","teddybear_pos","negation","positive","distractor","target","R","teddybear_pos","Y","11/10/2015","13:30",824,5.03,5,"M",100
"213","111015_4",2,2,76,"apple_pos","apple_inhib","apple_pos","inhibition","control","distractor","target","R","apple_pos","Y","11/10/2015","13:30",1570,5.03,5,"M",100
"214","111015_4",2,2,41,"cup_neg","cup_pos","cup_neg","negation","negative","distractor","target","R","cup_neg","Y","11/10/2015","13:30",974.000000000001,5.03,5,"M",100
"215","111015_4",2,2,75,"apple_pos","apple_pos","apple_inhib","inhibition","control","target","distractor","L","apple_pos","Y","11/10/2015","13:30",707,5.03,5,"M",100
"216","111015_4",2,2,25,"dog_implic","dog_control","dog_implic","implicature","implicature","distractor","target","R","dog_implic","Y","11/10/2015","13:30",1538,5.03,5,"M",100
"217","111015_4",2,2,6,"bird_neg","bird_neg","bird_pos","negation","negative","target","distractor","L","bird_neg","Y","11/10/2015","13:30",1566,5.03,5,"M",100
"218","111015_4",2,2,17,"lamp_pos","lamp_pos","lamp_inhib","inhibition","control","target","distractor","L","lamp_pos","Y","11/10/2015","13:30",1273,5.03,5,"M",100
"219","111015_4",2,2,59,"teddybear_inhib","teddybear_pos","teddybear_inhib","inhibition","inhib","distractor","target","L","teddybear_pos","N","11/10/2015","13:30",699,5.03,5,"M",100
"220","111015_4",2,2,56,"teddybear_pos","teddybear_pos","teddybear_inhib","inhibition","control","target","distractor","L","teddybear_pos","Y","11/10/2015","13:30",1146,5.03,5,"M",100
"221","111015_4",2,2,74,"apple_pos","apple_pos","apple_inhib","inhibition","control","target","distractor","L","apple_pos","Y","11/10/2015","13:30",1243,5.03,5,"M",100
"222","111015_4",2,2,38,"banana_neg","banana_pos","banana_neg","negation","negative","distractor","target","R","banana_neg","Y","11/10/2015","13:30",1912,5.03,5,"M",100
"223","111015_4",2,2,55,"teddybear_pos","teddybear_pos","teddybear_inhib","inhibition","control","target","distractor","L","teddybear_pos","Y","11/10/2015","13:30",1314,5.03,5,"M",100
"224","111015_4",2,2,34,"apple_implic","apple_control","apple_implic","implicature","implicature","distractor","target","R","apple_implic","Y","11/10/2015","13:30",1372,5.03,5,"M",100
"225","111015_4",2,2,58,"teddybear_pos","teddybear_inhib","teddybear_pos","inhibition","control","distractor","target","R","teddybear_pos","Y","11/10/2015","13:30",1073,5.03,5,"M",100
"226","111015_4",2,2,16,"lamp_pos","lamp_pos","lamp_inhib","inhibition","control","target","distractor","L","lamp_pos","Y","11/10/2015","13:30",2704,5.03,5,"M",100
"227","111015_4",2,2,37,"car_neg","car_pos","car_neg","negation","negative","distractor","target","R","car_neg","Y","11/10/2015","13:30",1129,5.03,5,"M",100
"228","111015_4",2,2,24,"cookie_control","cookie_control","cookie_foil","implicature","unambiguous","target","distractor","L","cookie_control","Y","11/10/2015","13:30",1066,5.03,5,"M",100
"229","111015_4",2,2,15,"lamp_pos","lamp_pos","lamp_inhib","inhibition","control","target","distractor","L","lamp_pos","Y","11/10/2015","13:30",1915,5.03,5,"M",100
"230","111015_4",2,2,35,"banana_neg","banana_pos","banana_neg","negation","negative","distractor","target","R","banana_neg","Y","11/10/2015","13:30",1092,5.03,5,"M",100
"231","111015_4",2,2,73,"car_inhib","car_pos","car_inhib","inhibition","inhib","distractor","target","R","car_inhib","Y","11/10/2015","13:30",1187,5.03,5,"M",100
"232","111015_4",2,2,53,"lamp_pos","lamp_pos","lamp_neg","negation","positive","target","distractor","L","lamp_pos","Y","11/10/2015","13:30",946,5.03,5,"M",100
"233","111015_4",2,2,77,"apple_pos","apple_inhib","apple_pos","inhibition","control","distractor","target","R","apple_pos","Y","11/10/2015","13:30",1328,5.03,5,"M",100
"234","111015_4",2,2,66,"dog_inhib","dog_inhib","dog_pos","inhibition","inhib","target","distractor","L","dog_inhib","Y","11/10/2015","13:30",1586,5.03,5,"M",100
"235","111015_4",2,2,36,"car_pos","car_neg","car_pos","negation","positive","distractor","target","R","car_pos","Y","11/10/2015","13:30",1392,5.03,5,"M",100
"236","111015_4",2,2,78,"apple_pos","apple_inhib","apple_pos","inhibition","control","distractor","target","R","apple_pos","Y","11/10/2015","13:30",836,5.03,5,"M",100
"237","111015_4",2,2,19,"lamp_pos","lamp_pos","lamp_inhib","inhibition","control","target","distractor","L","lamp_pos","Y","11/10/2015","13:30",704,5.03,5,"M",100
"238","111015_4",2,2,23,"bird_control","bird_foil","bird_control","implicature","unambiguous","distractor","target","R","bird_control","Y","11/10/2015","13:30",1426,5.03,5,"M",100
"239","111015_4",2,2,71,"car_pos","car_inhib","car_pos","inhibition","control","distractor","target","R","car_pos","Y","11/10/2015","13:30",1547,5.03,5,"M",100
"240","111015_4",2,2,9,"bird_pos","bird_inhib","bird_pos","inhibition","control","distractor","target","R","bird_pos","Y","11/10/2015","13:30",1511,5.03,5,"M",100
"241","111015_4",2,2,4,"bicycle_neg","bicycle_pos","bicycle_neg","negation","negative","distractor","target","L","bicycle_pos","N","11/10/2015","13:30",1735,5.03,5,"M",100
"242","111015_4",2,2,53,"banana_inhib","banana_pos","banana_inhib","inhibition","inhib","distractor","target","R","banana_inhib","Y","11/10/2015","13:30",1543,5.03,5,"M",100
"243","111015_4",2,2,54,"bicycle_pos","bicycle_pos","bicycle_neg","negation","positive","target","distractor","L","bicycle_pos","Y","11/10/2015","13:30",1035,5.03,5,"M",100
"244","111015_4",2,2,55,"cup_neg","cup_pos","cup_neg","negation","negative","distractor","target","R","cup_neg","Y","11/10/2015","13:30",771.000000000001,5.03,5,"M",100
"245","111015_4",2,2,54,"teddybear_pos","teddybear_inhib","teddybear_pos","inhibition","control","distractor","target","R","teddybear_pos","Y","11/10/2015","13:30",1109,5.03,5,"M",100
"246","111015_4",2,2,60,"dog_pos","dog_pos","dog_inhib","inhibition","control","target","distractor","L","dog_pos","Y","11/10/2015","13:30",2399,5.03,5,"M",100
"247","111015_4",2,2,42,"bird_pos","bird_pos","bird_neg","negation","positive","target","distractor","L","bird_pos","Y","11/10/2015","13:30",1928,5.03,5,"M",100
"248","111015_4",2,2,28,"car_control","car_control","car_foil","implicature","unambiguous","target","distractor","R","car_foil","N","11/10/2015","13:30",1954,5.03,5,"M",100
"249","111015_4",2,2,33,"bird_neg","bird_pos","bird_neg","negation","negative","distractor","target","R","bird_neg","Y","11/10/2015","13:30",1321,5.03,5,"M",100
"250","111015_4",2,2,14,"lamp_pos","lamp_inhib","lamp_pos","inhibition","control","distractor","target","R","lamp_pos","Y","11/10/2015","13:30",1775,5.03,5,"M",100
"251","111015_4",2,2,35,"banana_control","banana_control","banana_foil","implicature","unambiguous","target","distractor","L","banana_control","Y","11/10/2015","13:30",1426,5.03,5,"M",100
"252","111015_4",2,2,12,"bird_pos","bird_inhib","bird_pos","inhibition","control","distractor","target","R","bird_pos","Y","11/10/2015","13:30",1475,5.03,5,"M",100
"253","111015_4",2,2,38,"cup_implic","cup_implic","cup_control","implicature","implicature","target","distractor","L","cup_implic","Y","11/10/2015","13:30",2337,5.03,5,"M",100
"254","111015_4",2,2,39,"car_implic","car_control","car_implic","implicature","implicature","distractor","target","R","car_implic","Y","11/10/2015","13:30",1875,5.03,5,"M",100
"255","111015_4",2,2,52,"apple_pos","apple_pos","apple_neg","negation","positive","target","distractor","L","apple_pos","Y","11/10/2015","13:30",1752,5.03,5,"M",100
"256","111015_4",2,2,52,"banana_pos","banana_inhib","banana_pos","inhibition","control","distractor","target","R","banana_pos","Y","11/10/2015","13:30",634,5.03,5,"M",100
"257","111015_4",2,2,34,"cat_pos","cat_pos","cat_neg","negation","positive","target","distractor","L","cat_pos","Y","11/10/2015","13:30",2832,5.03,5,"M",100
"258","111015_4",2,2,41,"lamp_control","lamp_control","lamp_foil","implicature","unambiguous","target","distractor","L","lamp_control","Y","11/10/2015","13:30",2451,5.03,5,"M",100
"259","111015_4",2,2,42,"apple_implic","apple_implic","apple_control","implicature","implicature","target","distractor","L","apple_implic","Y","11/10/2015","13:30",1554,5.03,5,"M",100
"260","111015_4",2,2,56,"car_pos","car_neg","car_pos","negation","positive","distractor","target","R","car_pos","Y","11/10/2015","13:30",2342,5.03,5,"M",100
"261","111015_4",2,2,20,"lamp_inhib","lamp_inhib","lamp_pos","inhibition","inhib","target","distractor","L","lamp_inhib","Y","11/10/2015","13:30",1906,5.03,5,"M",100
"262","111015_4",2,2,5,"lamp_neg","lamp_neg","lamp_pos","negation","negative","target","distractor","L","lamp_neg","Y","11/10/2015","13:30",1512,5.03,5,"M",100
"263","111015_4",2,2,69,"car_pos","car_pos","car_inhib","inhibition","control","target","distractor","L","car_pos","Y","11/10/2015","13:30",903,5.03,5,"M",100
"264","111015_4",2,2,22,"banana_control","banana_foil","banana_control","implicature","unambiguous","distractor","target","R","banana_control","Y","11/10/2015","13:30",1793,5.03,5,"M",100
"265","111015_4",2,2,13,"bird_inhib","bird_inhib","bird_pos","inhibition","inhib","target","distractor","L","bird_inhib","Y","11/10/2015","13:30",1412,5.03,5,"M",100
"266","111015_4",2,2,10,"bird_pos","bird_pos","bird_inhib","inhibition","control","target","distractor","L","bird_pos","Y","11/10/2015","13:30",1177,5.03,5,"M",100
"267","111015_4",2,2,8,"bird_pos","bird_pos","bird_inhib","inhibition","control","target","distractor","L","bird_pos","Y","11/10/2015","13:30",1320,5.03,5,"M",100
"268","111015_4",2,2,32,"teddybear_pos","teddybear_neg","teddybear_pos","negation","positive","distractor","target","R","teddybear_pos","Y","11/10/2015","13:30",1148,5.03,5,"M",100
"269","111015_4",2,2,51,"bird_neg","bird_neg","bird_pos","negation","negative","target","distractor","L","bird_neg","Y","11/10/2015","13:30",1210,5.03,5,"M",100
"270","111015_4",2,2,40,"banana_control","banana_control","banana_foil","implicature","unambiguous","target","distractor","L","banana_control","Y","11/10/2015","13:30",1432,5.03,5,"M",100
"271","111015_4",2,2,26,"cookie_inhib","cookie_inhib","cookie_pos","inhibition","inhib","target","distractor","L","cookie_inhib","Y","11/10/2015","13:30",1643,5.03,5,"M",100
"272","111015_4",2,2,27,"flower_pos","flower_inhib","flower_pos","inhibition","control","distractor","target","R","flower_pos","Y","11/10/2015","13:30",1256,5.03,5,"M",100
"273","111015_4",2,2,15,"banana_neg","banana_neg","banana_pos","negation","negative","target","distractor","L","banana_neg","Y","11/10/2015","13:30",1567,5.03,5,"M",100
"274","111015_4",2,2,61,"dog_pos","dog_inhib","dog_pos","inhibition","control","distractor","target","R","dog_pos","Y","11/10/2015","13:30",965,5.03,5,"M",100
"275","111015_4",2,2,3,"cat_neg","cat_neg","cat_pos","negation","negative","target","distractor","R","cat_pos","N","11/10/2015","13:30",1552,5.03,5,"M",100
"276","111015_4",2,2,20,"car_control","car_control","car_foil","implicature","unambiguous","target","distractor","L","car_control","Y","11/10/2015","13:30",1354,5.03,5,"M",100
"277","111015_4",2,2,67,"car_pos","car_pos","car_inhib","inhibition","control","target","distractor","L","car_pos","Y","11/10/2015","13:30",1262,5.03,5,"M",100
"278","111015_4",2,2,68,"car_pos","car_pos","car_inhib","inhibition","control","target","distractor","L","car_pos","Y","11/10/2015","13:30",930,5.03,5,"M",100
"279","111015_4",2,2,72,"car_pos","car_pos","car_inhib","inhibition","control","target","distractor","L","car_pos","Y","11/10/2015","13:30",1034,5.03,5,"M",100
"280","111015_4",2,2,49,"banana_pos","banana_neg","banana_pos","negation","positive","distractor","target","L","banana_neg","N","11/10/2015","13:30",1236,5.03,5,"M",100
"281","111015_4",2,2,50,"flower_neg","flower_neg","flower_pos","negation","negative","target","distractor","L","flower_neg","Y","11/10/2015","13:30",1720,5.03,5,"M",100
"282","111015_4",2,2,49,"banana_pos","banana_inhib","banana_pos","inhibition","control","distractor","target","L","banana_inhib","N","11/10/2015","13:30",874,5.03,5,"M",100
"283","111015_4",2,2,14,"cookie_pos","cookie_pos","cookie_neg","negation","positive","target","distractor","L","cookie_pos","Y","11/10/2015","13:30",1917,5.03,5,"M",100
"284","111015_4",2,2,11,"teddybear_pos","teddybear_neg","teddybear_pos","negation","positive","distractor","target","R","teddybear_pos","Y","11/10/2015","13:30",841,5.03,5,"M",100
"285","111015_4",2,2,25,"cookie_pos","cookie_inhib","cookie_pos","inhibition","control","distractor","target","R","cookie_pos","Y","11/10/2015","13:30",1466,5.03,5,"M",100
"286","111015_4",2,2,5,"bird_implic","bird_control","bird_implic","implicature","implicature","distractor","target","R","bird_implic","Y","11/10/2015","13:30",1315,5.03,5,"M",100
"287","111015_4",2,2,43,"cookie_control","cookie_foil","cookie_control","implicature","unambiguous","distractor","target","R","cookie_control","Y","11/10/2015","13:30",1341,5.03,5,"M",100
"288","111015_4",2,2,43,"apple_neg","apple_pos","apple_neg","negation","negative","distractor","target","L","apple_pos","N","11/10/2015","13:30",2007,5.03,5,"M",100
"289","111015_4",2,2,44,"lamp_neg","lamp_neg","lamp_pos","negation","negative","target","distractor","R","lamp_pos","N","11/10/2015","13:30",1320,5.03,5,"M",100
"290","111015_4",2,2,15,"cup_control","cup_foil","cup_control","implicature","unambiguous","distractor","target","R","cup_control","Y","11/10/2015","13:30",1423,5.03,5,"M",100
"291","111015_4",2,2,2,"flower_pos","flower_neg","flower_pos","negation","positive","distractor","target","R","flower_pos","Y","11/10/2015","13:30",946,5.03,5,"M",100
"292","111015_4",2,2,11,"bird_pos","bird_pos","bird_inhib","inhibition","control","target","distractor","L","bird_pos","Y","11/10/2015","13:30",1103,5.03,5,"M",100
"293","111015_4",2,2,7,"bird_pos","bird_pos","bird_inhib","inhibition","control","target","distractor","L","bird_pos","Y","11/10/2015","13:30",1612,5.03,5,"M",100
"294","111015_4",2,2,6,"cup_inhib","cup_pos","cup_inhib","inhibition","inhib","distractor","target","L","cup_pos","N","11/10/2015","13:30",1193,5.03,5,"M",100
"295","111015_4",2,2,37,"teddybear_control","teddybear_foil","teddybear_control","implicature","unambiguous","distractor","target","R","teddybear_control","Y","11/10/2015","13:30",2633,5.03,5,"M",100
"296","111015_4",2,2,13,"apple_neg","apple_neg","apple_pos","negation","negative","target","distractor","L","apple_neg","Y","11/10/2015","13:30",1513,5.03,5,"M",100
"297","111015_4",2,2,10,"car_pos","car_pos","car_neg","negation","positive","target","distractor","L","car_pos","Y","11/10/2015","13:30",1097,5.03,5,"M",100
"298","111015_4",2,2,24,"cookie_pos","cookie_pos","cookie_inhib","inhibition","control","target","distractor","L","cookie_pos","Y","11/10/2015","13:30",1017,5.03,5,"M",100
"299","111015_4",2,2,47,"dog_implic","dog_control","dog_implic","implicature","implicature","distractor","target","R","dog_implic","Y","11/10/2015","13:30",1224,5.03,5,"M",100
"300","111015_4",2,2,6,"apple_control","apple_control","apple_foil","implicature","unambiguous","target","distractor","L","apple_control","Y","11/10/2015","13:30",1608,5.03,5,"M",100
"301","111015_4",2,2,39,"dog_pos","dog_pos","dog_neg","negation","positive","target","distractor","L","dog_pos","Y","11/10/2015","13:30",1407,5.03,5,"M",100
"302","111015_4",2,2,62,"dog_pos","dog_inhib","dog_pos","inhibition","control","distractor","target","R","dog_pos","Y","11/10/2015","13:30",780,5.03,5,"M",100
"303","111015_4",2,2,64,"dog_pos","dog_pos","dog_inhib","inhibition","control","target","distractor","L","dog_pos","Y","11/10/2015","13:30",876,5.03,5,"M",100
"304","111015_4",2,2,21,"cookie_pos","cookie_inhib","cookie_pos","inhibition","control","distractor","target","R","cookie_pos","Y","11/10/2015","13:30",1501,5.03,5,"M",100
"305","111015_4",2,2,46,"cookie_neg","cookie_pos","cookie_neg","negation","negative","distractor","target","R","cookie_neg","Y","11/10/2015","13:30",1246,5.03,5,"M",100
"306","111015_4",2,2,70,"car_pos","car_pos","car_inhib","inhibition","control","target","distractor","L","car_pos","Y","11/10/2015","13:30",968,5.03,5,"M",100
"307","111015_4",2,2,36,"bird_control","bird_foil","bird_control","implicature","unambiguous","distractor","target","R","bird_control","Y","11/10/2015","13:30",1107,5.03,5,"M",100
"308","111015_4",2,2,51,"banana_pos","banana_pos","banana_inhib","inhibition","control","target","distractor","L","banana_pos","Y","11/10/2015","13:30",1171,5.03,5,"M",100
"309","111015_4",2,2,31,"cookie_pos","cookie_neg","cookie_pos","negation","positive","distractor","target","R","cookie_pos","Y","11/10/2015","13:30",1009,5.03,5,"M",100
"310","111015_4",2,2,48,"banana_pos","banana_inhib","banana_pos","inhibition","control","distractor","target","R","banana_pos","Y","11/10/2015","13:30",951,5.03,5,"M",100
"311","111015_4",2,2,23,"cookie_pos","cookie_pos","cookie_inhib","inhibition","control","target","distractor","R","cookie_inhib","N","11/10/2015","13:30",818,5.03,5,"M",100
"312","111015_4",2,2,24,"teddybear_pos","teddybear_pos","teddybear_neg","negation","positive","target","distractor","L","teddybear_pos","Y","11/10/2015","13:30",1723,5.03,5,"M",100
"313","111015_4",2,2,50,"flower_control","flower_foil","flower_control","implicature","unambiguous","distractor","target","R","flower_control","Y","11/10/2015","13:30",1876,5.03,5,"M",100
"314","111015_4",2,2,16,"dog_neg","dog_neg","dog_pos","negation","negative","target","distractor","L","dog_neg","Y","11/10/2015","13:30",1872,5.03,5,"M",100
"315","111015_4",2,2,59,"cat_pos","cat_pos","cat_neg","negation","positive","target","distractor","L","cat_pos","Y","11/10/2015","13:30",817,5.03,5,"M",100
"316","111015_4",2,2,21,"lamp_implic","lamp_implic","lamp_control","implicature","implicature","target","distractor","L","lamp_implic","Y","11/10/2015","13:30",2044,5.03,5,"M",100
"317","111015_4",2,2,14,"dog_control","dog_foil","dog_control","implicature","unambiguous","distractor","target","R","dog_control","Y","11/10/2015","13:30",2156,5.03,5,"M",100
"318","111015_4",2,2,3,"cup_pos","cup_pos","cup_inhib","inhibition","control","target","distractor","L","cup_pos","Y","11/10/2015","13:30",992,5.03,5,"M",100
"319","111015_4",2,2,1,"cookie_pos","cookie_neg","cookie_pos","negation","positive","distractor","target","R","cookie_pos","Y","11/10/2015","13:30",1605,5.03,5,"M",100
"320","111015_4",2,2,5,"cup_pos","cup_inhib","cup_pos","inhibition","control","distractor","target","L","cup_inhib","N","11/10/2015","13:30",1591,5.03,5,"M",100
"321","111015_4",2,2,48,"flower_pos","flower_pos","flower_neg","negation","positive","target","distractor","L","flower_pos","Y","11/10/2015","13:30",1447,5.03,5,"M",100
"322","111015_4",2,2,12,"cup_neg","cup_pos","cup_neg","negation","negative","distractor","target","R","cup_neg","Y","11/10/2015","13:30",1501,5.03,5,"M",100
"323","111015_4",2,2,9,"apple_pos","apple_neg","apple_pos","negation","positive","distractor","target","R","apple_pos","Y","11/10/2015","13:30",1489,5.03,5,"M",100
"324","111015_4",2,2,49,"bird_implic","bird_implic","bird_control","implicature","implicature","target","distractor","L","bird_implic","Y","11/10/2015","13:30",2018,5.03,5,"M",100
"325","111015_4",2,2,22,"cat_neg","cat_neg","cat_pos","negation","negative","target","distractor","L","cat_neg","Y","11/10/2015","13:30",2306,5.03,5,"M",100
"326","111015_4",2,2,18,"bicycle_neg","bicycle_pos","bicycle_neg","negation","negative","distractor","target","R","bicycle_neg","Y","11/10/2015","13:30",1901,5.03,5,"M",100
"327","111015_4",2,2,7,"dog_implic","dog_implic","dog_control","implicature","implicature","target","distractor","L","dog_implic","Y","11/10/2015","13:30",1647,5.03,5,"M",100
"328","111015_4",2,2,44,"cat_control","cat_foil","cat_control","implicature","unambiguous","distractor","target","R","cat_control","Y","11/10/2015","13:30",2473,5.03,5,"M",100
"329","111015_4",2,2,60,"dog_neg","dog_neg","dog_pos","negation","negative","target","distractor","L","dog_neg","Y","11/10/2015","13:30",1371,5.03,5,"M",100
"330","111015_4",2,2,1,"cat_implic","cat_implic","cat_control","implicature","implicature","target","distractor","L","cat_implic","Y","11/10/2015","13:30",2525,5.03,5,"M",100
"331","111015_4",2,2,13,"apple_implic","apple_control","apple_implic","implicature","implicature","distractor","target","R","apple_implic","Y","11/10/2015","13:30",1019,5.03,5,"M",100
"332","111015_4",2,2,8,"dog_neg","dog_pos","dog_neg","negation","negative","distractor","target","R","dog_neg","Y","11/10/2015","13:30",1481,5.03,5,"M",100
"333","111015_4",2,2,47,"bicycle_pos","bicycle_pos","bicycle_neg","negation","positive","target","distractor","L","bicycle_pos","Y","11/10/2015","13:30",1444,5.03,5,"M",100
"334","111015_4",2,2,50,"banana_pos","banana_pos","banana_inhib","inhibition","control","target","distractor","R","banana_inhib","N","11/10/2015","13:30",356,5.03,5,"M",100
"335","111015_4",2,2,30,"apple_neg","apple_pos","apple_neg","negation","negative","distractor","target","R","apple_neg","Y","11/10/2015","13:30",1166,5.03,5,"M",100
"336","111015_4",2,2,4,"teddybear_implic","teddybear_implic","teddybear_control","implicature","implicature","target","distractor","L","teddybear_implic","Y","11/10/2015","13:30",1373,5.03,5,"M",100
"337","111015_4",2,2,40,"cat_inhib","cat_pos","cat_inhib","inhibition","inhib","distractor","target","R","cat_inhib","Y","11/10/2015","13:30",1465,5.03,5,"M",100
"338","111015_4",2,2,1,"cup_pos","cup_pos","cup_inhib","inhibition","control","target","distractor","L","cup_pos","Y","11/10/2015","13:30",1731,5.03,5,"M",100
"339","111015_4",2,2,23,"flower_neg","flower_neg","flower_pos","negation","negative","target","distractor","R","flower_pos","N","11/10/2015","13:30",846,5.03,5,"M",100
"340","111015_4",2,2,51,"car_control","car_control","car_foil","implicature","unambiguous","target","distractor","L","car_control","Y","11/10/2015","13:30",1234,5.03,5,"M",100
"341","111015_4",2,2,28,"flower_pos","flower_pos","flower_inhib","inhibition","control","target","distractor","L","flower_pos","Y","11/10/2015","13:30",1273,5.03,5,"M",100
"342","111015_4",2,2,29,"flower_pos","flower_inhib","flower_pos","inhibition","control","distractor","target","R","flower_pos","Y","11/10/2015","13:30",746,5.03,5,"M",100
"343","111015_4",2,2,19,"cat_control","cat_foil","cat_control","implicature","unambiguous","distractor","target","R","cat_control","Y","11/10/2015","13:30",1810,5.03,5,"M",100
"344","111015_4",2,2,79,"apple_inhib","apple_pos","apple_inhib","inhibition","inhib","distractor","target","R","apple_inhib","Y","11/10/2015","13:30",1105,5.03,5,"M",100
"345","111015_4",2,2,29,"cup_neg","cup_pos","cup_neg","negation","negative","distractor","target","R","cup_neg","Y","11/10/2015","13:30",1098,5.03,5,"M",100
"346","111015_4",2,2,4,"cup_pos","cup_pos","cup_inhib","inhibition","control","target","distractor","L","cup_pos","Y","11/10/2015","13:30",713,5.03,5,"M",100
"347","111015_4",2,2,22,"cookie_pos","cookie_inhib","cookie_pos","inhibition","control","distractor","target","R","cookie_pos","Y","11/10/2015","13:30",1058,5.03,5,"M",100
"348","111015_4",2,2,42,"bicycle_pos","bicycle_inhib","bicycle_pos","inhibition","control","distractor","target","R","bicycle_pos","Y","11/10/2015","13:30",562,5.03,5,"M",100
"349","111015_4",2,2,31,"flower_pos","flower_inhib","flower_pos","inhibition","control","distractor","target","R","flower_pos","Y","11/10/2015","13:30",930,5.03,5,"M",100
"350","111015_4",2,2,43,"bicycle_pos","bicycle_inhib","bicycle_pos","inhibition","control","distractor","target","R","bicycle_pos","Y","11/10/2015","13:30",932,5.03,5,"M",100
"351","111015_4",2,2,53,"bicycle_control","bicycle_control","bicycle_foil","implicature","unambiguous","target","distractor","L","bicycle_control","Y","11/10/2015","13:30",2109,5.03,5,"M",100
"352","111015_4",2,2,38,"cat_pos","cat_inhib","cat_pos","inhibition","control","distractor","target","R","cat_pos","Y","11/10/2015","13:30",1034,5.03,5,"M",100
"353","111015_4",2,2,48,"bicycle_implic","bicycle_implic","bicycle_control","implicature","implicature","target","distractor","L","bicycle_implic","Y","11/10/2015","13:30",950,5.03,5,"M",100
"354","111015_4",2,2,52,"lamp_implic","lamp_implic","lamp_control","implicature","implicature","target","distractor","L","lamp_implic","Y","11/10/2015","13:30",1978,5.03,5,"M",100
"355","111015_4",2,2,45,"cat_pos","cat_pos","cat_neg","negation","positive","target","distractor","L","cat_pos","Y","11/10/2015","13:30",2109,5.03,5,"M",100
"356","111015_4",2,2,17,"bird_pos","bird_pos","bird_neg","negation","positive","target","distractor","L","bird_pos","Y","11/10/2015","13:30",3241,5.03,5,"M",100
"357","111015_4",2,2,16,"teddybear_implic","teddybear_control","teddybear_implic","implicature","implicature","distractor","target","R","teddybear_implic","Y","11/10/2015","13:30",1563,5.03,5,"M",100
"358","111015_4",2,2,2,"bicycle_control","bicycle_control","bicycle_foil","implicature","unambiguous","target","distractor","L","bicycle_control","Y","11/10/2015","13:30",2528,5.03,5,"M",100
"359","111015_4",2,2,25,"lamp_pos","lamp_pos","lamp_neg","negation","positive","target","distractor","L","lamp_pos","Y","11/10/2015","13:30",2587,5.03,5,"M",100
"360","111015_4",2,2,47,"banana_pos","banana_pos","banana_inhib","inhibition","control","target","distractor","L","banana_pos","Y","11/10/2015","13:30",1339,5.03,5,"M",100
"361","111015_4",2,2,46,"flower_implic","flower_control","flower_implic","implicature","implicature","distractor","target","R","flower_implic","Y","11/10/2015","13:30",2577,5.03,5,"M",100
"362","111015_4",2,2,41,"bicycle_pos","bicycle_inhib","bicycle_pos","inhibition","control","distractor","target","R","bicycle_pos","Y","11/10/2015","13:30",907,5.03,5,"M",100
"363","111015_4",2,2,19,"cup_pos","cup_neg","cup_pos","negation","positive","distractor","target","R","cup_pos","Y","11/10/2015","13:30",1467,5.03,5,"M",100
"364","111015_4",2,2,20,"lamp_neg","lamp_pos","lamp_neg","negation","negative","distractor","target","R","lamp_neg","Y","11/10/2015","13:30",1265,5.03,5,"M",100
"365","111015_4",2,2,21,"car_pos","car_neg","car_pos","negation","positive","distractor","target","R","car_pos","Y","11/10/2015","13:30",1727,5.03,5,"M",100
"366","111015_4",2,2,39,"cat_pos","cat_inhib","cat_pos","inhibition","control","distractor","target","R","cat_pos","Y","11/10/2015","13:30",1274,5.03,5,"M",100
"367","111015_4",2,2,60,"banana_implic","banana_control","banana_implic","implicature","implicature","distractor","target","R","banana_implic","Y","11/10/2015","13:30",1847,5.03,5,"M",100
"368","111015_4",2,2,46,"bicycle_inhib","bicycle_pos","bicycle_inhib","inhibition","inhib","distractor","target","R","bicycle_inhib","Y","11/10/2015","13:30",1276,5.03,5,"M",100
"369","111015_4",2,2,3,"cup_implic","cup_implic","cup_control","implicature","implicature","target","distractor","L","cup_implic","Y","11/10/2015","13:30",1309,5.03,5,"M",100
"370","111015_4",2,2,8,"cookie_control","cookie_control","cookie_foil","implicature","unambiguous","target","distractor","L","cookie_control","Y","11/10/2015","13:30",1780,5.03,5,"M",100
"371","111015_4",2,2,45,"bicycle_pos","bicycle_pos","bicycle_inhib","inhibition","control","target","distractor","L","bicycle_pos","Y","11/10/2015","13:30",949,5.03,5,"M",100
"372","111015_4",2,2,10,"flower_implic","flower_control","flower_implic","implicature","implicature","distractor","target","R","flower_implic","Y","11/10/2015","13:30",1839,5.03,5,"M",100
"373","111015_4",2,2,58,"teddybear_pos","teddybear_pos","teddybear_neg","negation","positive","target","distractor","L","teddybear_pos","Y","11/10/2015","13:30",842,5.03,5,"M",100
"374","111015_4",2,2,28,"dog_neg","dog_neg","dog_pos","negation","negative","target","distractor","L","dog_neg","Y","11/10/2015","13:30",1954,5.03,5,"M",100
"375","111015_4",2,2,36,"cat_pos","cat_inhib","cat_pos","inhibition","control","distractor","target","R","cat_pos","Y","11/10/2015","13:30",512,5.03,5,"M",100
"376","111015_4",2,2,32,"flower_pos","flower_inhib","flower_pos","inhibition","control","distractor","target","R","flower_pos","Y","11/10/2015","13:30",1377,5.03,5,"M",100
"377","111015_4",2,2,37,"cat_pos","cat_pos","cat_inhib","inhibition","control","target","distractor","L","cat_pos","Y","11/10/2015","13:30",1216,5.03,5,"M",100
"378","111015_4",2,2,33,"flower_inhib","flower_pos","flower_inhib","inhibition","inhib","distractor","target","L","flower_pos","N","11/10/2015","13:30",801,5.03,5,"M",100
"379","111015_4",2,2,34,"cat_pos","cat_pos","cat_inhib","inhibition","control","target","distractor","R","cat_inhib","N","11/10/2015","13:30",1165,5.03,5,"M",100
"380","111015_4",2,2,45,"bird_control","bird_foil","bird_control","implicature","unambiguous","distractor","target","R","bird_control","Y","11/10/2015","13:30",2269,5.03,5,"M",100
"381","111015_4",2,2,17,"bicycle_implic","bicycle_control","bicycle_implic","implicature","implicature","distractor","target","R","bicycle_implic","Y","11/10/2015","13:30",1017,5.03,5,"M",100
"382","111015_4",2,2,44,"bicycle_pos","bicycle_pos","bicycle_inhib","inhibition","control","target","distractor","L","bicycle_pos","Y","11/10/2015","13:30",1226,5.03,5,"M",100
"383","111015_4",2,2,27,"bicycle_neg","bicycle_pos","bicycle_neg","negation","negative","distractor","target","R","bicycle_neg","Y","11/10/2015","13:30",1285,5.03,5,"M",100
"384","111015_4",2,2,26,"flower_neg","flower_neg","flower_pos","negation","negative","target","distractor","L","flower_neg","Y","11/10/2015","13:30",1391,5.03,5,"M",100
"385","111015_4",2,2,58,"apple_control","apple_foil","apple_control","implicature","unambiguous","distractor","target","R","apple_control","Y","11/10/2015","13:30",1516,5.03,5,"M",100
"386","111015_4",2,2,12,"lamp_control","lamp_control","lamp_foil","implicature","unambiguous","target","distractor","L","lamp_control","Y","11/10/2015","13:30",1410,5.03,5,"M",100
"387","111015_4",2,2,57,"cookie_pos","cookie_pos","cookie_neg","negation","positive","target","distractor","L","cookie_pos","Y","11/10/2015","13:30",1568,5.03,5,"M",100
"388","111015_4",2,2,18,"flower_implic","flower_implic","flower_control","implicature","implicature","target","distractor","L","flower_implic","Y","11/10/2015","13:30",1896,5.03,5,"M",100
"389","111015_4",2,2,56,"cookie_implic","cookie_implic","cookie_control","implicature","implicature","target","distractor","L","cookie_implic","Y","11/10/2015","13:30",914,5.03,5,"M",100
"390","111015_4",2,2,54,"dog_control","dog_control","dog_foil","implicature","unambiguous","target","distractor","L","dog_control","Y","11/10/2015","13:30",2586,5.03,5,"M",100
"391","111015_4",2,2,30,"flower_pos","flower_pos","flower_inhib","inhibition","control","target","distractor","L","flower_pos","Y","11/10/2015","13:30",1007,5.03,5,"M",100
"392","111015_4",2,2,59,"cup_implic","cup_control","cup_implic","implicature","implicature","distractor","target","R","cup_implic","Y","11/10/2015","13:30",1787,5.03,5,"M",100
"393","111015_4",2,2,2,"cup_pos","cup_pos","cup_inhib","inhibition","control","target","distractor","L","cup_pos","Y","11/10/2015","13:30",1290,5.03,5,"M",100
"394","111015_4",2,2,57,"cat_implic","cat_implic","cat_control","implicature","implicature","target","distractor","L","cat_implic","Y","11/10/2015","13:30",1420,5.03,5,"M",100
"395","111015_4",2,2,55,"teddybear_implic","teddybear_implic","teddybear_control","implicature","implicature","target","distractor","L","teddybear_implic","Y","11/10/2015","13:30",1273,5.03,5,"M",100
"396","111015_4",2,2,11,"car_implic","car_implic","car_control","implicature","implicature","target","distractor","L","car_implic","Y","11/10/2015","13:30",1351,5.03,5,"M",100
"397","111015_4",2,2,9,"banana_control","banana_foil","banana_control","implicature","unambiguous","distractor","target","R","banana_control","Y","11/10/2015","13:30",2380,5.03,5,"M",100
"398","111015_4",2,2,35,"cat_pos","cat_inhib","cat_pos","inhibition","control","distractor","target","L","cat_inhib","N","11/10/2015","13:30",1265,5.03,5,"M",100
"399","111115_1",1,5,22,"car_control","car_foil","car_control","implicature","unambiguous","distractor","target","R","car_control","Y","11/11/2015","11:07",1651,6.71,6,"M",100
"400","111115_1",1,5,20,"lamp_implic","lamp_implic","lamp_control","implicature","implicature","target","distractor","L","lamp_implic","Y","11/11/2015","11:07",1273,6.71,6,"M",100
"401","111115_1",1,5,19,"dog_inhib","dog_pos","dog_inhib","inhibition","inhib","distractor","target","R","dog_inhib","Y","11/11/2015","11:07",789,6.71,6,"M",100
"402","111115_1",1,5,60,"lamp_pos","lamp_pos","lamp_inhib","inhibition","control","target","distractor","L","lamp_pos","Y","11/11/2015","11:07",717,6.71,6,"M",100
"403","111115_1",1,5,51,"car_neg","car_pos","car_neg","negation","negative","distractor","target","R","car_neg","Y","11/11/2015","11:07",1085,6.71,6,"M",100
"404","111115_1",1,5,18,"dog_pos","dog_pos","dog_inhib","inhibition","control","target","distractor","L","dog_pos","Y","11/11/2015","11:07",951,6.71,6,"M",100
"405","111115_1",1,5,17,"dog_pos","dog_pos","dog_inhib","inhibition","control","target","distractor","L","dog_pos","Y","11/11/2015","11:07",995,6.71,6,"M",100
"406","111115_1",1,5,50,"teddybear_pos","teddybear_neg","teddybear_pos","negation","positive","distractor","target","R","teddybear_pos","Y","11/11/2015","11:07",984,6.71,6,"M",100
"407","111115_1",1,5,24,"teddybear_implic","teddybear_implic","teddybear_control","implicature","implicature","target","distractor","R","teddybear_control","N","11/11/2015","11:07",1000,6.71,6,"M",100
"408","111115_1",1,5,25,"bird_control","bird_control","bird_foil","implicature","unambiguous","target","distractor","L","bird_control","Y","11/11/2015","11:07",1474,6.71,6,"M",100
"409","111115_1",1,5,21,"teddybear_pos","teddybear_inhib","teddybear_pos","inhibition","control","distractor","target","R","teddybear_pos","Y","11/11/2015","11:07",856,6.71,6,"M",100
"410","111115_1",1,5,20,"teddybear_pos","teddybear_inhib","teddybear_pos","inhibition","control","distractor","target","R","teddybear_pos","Y","11/11/2015","11:07",1598,6.71,6,"M",100
"411","111115_1",1,5,16,"dog_pos","dog_pos","dog_inhib","inhibition","control","target","distractor","L","dog_pos","Y","11/11/2015","11:07",1168,6.71,6,"M",100
"412","111115_1",1,5,59,"lamp_pos","lamp_inhib","lamp_pos","inhibition","control","distractor","target","R","lamp_pos","Y","11/11/2015","11:07",2948,6.71,6,"M",100
"413","111115_1",1,5,21,"banana_implic","banana_implic","banana_control","implicature","implicature","target","distractor","R","banana_control","N","11/11/2015","11:07",1227,6.71,6,"M",100
"414","111115_1",1,5,1,"dog_neg","dog_pos","dog_neg","negation","negative","distractor","target","R","dog_neg","Y","11/11/2015","11:07",3089,6.71,6,"M",100
"415","111115_1",1,5,31,"apple_pos","apple_pos","apple_neg","negation","positive","target","distractor","L","apple_pos","Y","11/11/2015","11:07",954,6.71,6,"M",100
"416","111115_1",1,5,34,"bicycle_pos","bicycle_neg","bicycle_pos","negation","positive","distractor","target","L","bicycle_neg","N","11/11/2015","11:07",1393,6.71,6,"M",100
"417","111115_1",1,5,49,"flower_pos","flower_pos","flower_inhib","inhibition","control","target","distractor","L","flower_pos","Y","11/11/2015","11:07",666,6.71,6,"M",100
"418","111115_1",1,5,23,"cup_control","cup_control","cup_foil","implicature","unambiguous","target","distractor","L","cup_control","Y","11/11/2015","11:07",867,6.71,6,"M",100
"419","111115_1",1,5,60,"cat_implic","cat_implic","cat_control","implicature","implicature","target","distractor","L","cat_implic","Y","11/11/2015","11:07",2243,6.71,6,"M",100
"420","111115_1",1,5,46,"banana_pos","banana_neg","banana_pos","negation","positive","distractor","target","R","banana_pos","Y","11/11/2015","11:07",891,6.71,6,"M",100
"421","111115_1",1,5,61,"lamp_pos","lamp_inhib","lamp_pos","inhibition","control","distractor","target","R","lamp_pos","Y","11/11/2015","11:07",514,6.71,6,"M",100
"422","111115_1",1,5,19,"apple_control","apple_foil","apple_control","implicature","unambiguous","distractor","target","R","apple_control","Y","11/11/2015","11:07",1316,6.71,6,"M",100
"423","111115_1",1,5,33,"dog_neg","dog_neg","dog_pos","negation","negative","target","distractor","L","dog_neg","Y","11/11/2015","11:07",1067,6.71,6,"M",100
"424","111115_1",1,5,32,"cup_control","cup_foil","cup_control","implicature","unambiguous","distractor","target","R","cup_control","Y","11/11/2015","11:07",1180,6.71,6,"M",100
"425","111115_1",1,5,49,"cup_neg","cup_pos","cup_neg","negation","negative","distractor","target","R","cup_neg","Y","11/11/2015","11:07",1076,6.71,6,"M",100
"426","111115_1",1,5,31,"bicycle_implic","bicycle_implic","bicycle_control","implicature","implicature","target","distractor","R","bicycle_control","N","11/11/2015","11:07",776,6.71,6,"M",100
"427","111115_1",1,5,37,"teddybear_neg","teddybear_neg","teddybear_pos","negation","negative","target","distractor","R","teddybear_pos","N","11/11/2015","11:07",716.999999999998,6.71,6,"M",100
"428","111115_1",1,5,15,"dog_pos","dog_inhib","dog_pos","inhibition","control","distractor","target","R","dog_pos","Y","11/11/2015","11:07",865,6.71,6,"M",100
"429","111115_1",1,5,32,"cup_pos","cup_neg","cup_pos","negation","positive","distractor","target","R","cup_pos","Y","11/11/2015","11:07",1306,6.71,6,"M",100
"430","111115_1",1,5,52,"apple_pos","apple_neg","apple_pos","negation","positive","distractor","target","R","apple_pos","Y","11/11/2015","11:07",1003,6.71,6,"M",100
"431","111115_1",1,5,59,"bicycle_implic","bicycle_implic","bicycle_control","implicature","implicature","target","distractor","R","bicycle_control","N","11/11/2015","11:07",889,6.71,6,"M",100
"432","111115_1",1,5,29,"teddybear_neg","teddybear_pos","teddybear_neg","negation","negative","distractor","target","R","teddybear_neg","Y","11/11/2015","11:07",1176,6.71,6,"M",100
"433","111115_1",1,5,57,"cookie_pos","cookie_pos","cookie_inhib","inhibition","control","target","distractor","L","cookie_pos","Y","11/11/2015","11:07",612,6.71,6,"M",100
"434","111115_1",1,5,18,"cookie_control","cookie_foil","cookie_control","implicature","unambiguous","distractor","target","R","cookie_control","Y","11/11/2015","11:07",1042,6.71,6,"M",100
"435","111115_1",1,5,55,"cookie_pos","cookie_pos","cookie_inhib","inhibition","control","target","distractor","L","cookie_pos","Y","11/11/2015","11:07",643,6.71,6,"M",100
"436","111115_1",1,5,35,"flower_neg","flower_neg","flower_pos","negation","negative","target","distractor","L","flower_neg","Y","11/11/2015","11:07",2377,6.71,6,"M",100
"437","111115_1",1,5,27,"cat_pos","cat_neg","cat_pos","negation","positive","distractor","target","L","cat_neg","N","11/11/2015","11:07",1179,6.71,6,"M",100
"438","111115_1",1,5,58,"cookie_inhib","cookie_inhib","cookie_pos","inhibition","inhib","target","distractor","R","cookie_pos","N","11/11/2015","11:07",641,6.71,6,"M",100
"439","111115_1",1,5,27,"banana_pos","banana_inhib","banana_pos","inhibition","control","distractor","target","R","banana_pos","Y","11/11/2015","11:07",694,6.71,6,"M",100
"440","111115_1",1,5,58,"cup_control","cup_control","cup_foil","implicature","unambiguous","target","distractor","L","cup_control","Y","11/11/2015","11:07",1004,6.71,6,"M",100
"441","111115_1",1,5,14,"dog_pos","dog_inhib","dog_pos","inhibition","control","distractor","target","R","dog_pos","Y","11/11/2015","11:07",913,6.71,6,"M",100
"442","111115_1",1,5,33,"car_implic","car_control","car_implic","implicature","implicature","distractor","target","L","car_control","N","11/11/2015","11:07",1510,6.71,6,"M",100
"443","111115_1",1,5,17,"cat_implic","cat_implic","cat_control","implicature","implicature","target","distractor","L","cat_implic","Y","11/11/2015","11:07",1289,6.71,6,"M",100
"444","111115_1",1,5,47,"cookie_neg","cookie_pos","cookie_neg","negation","negative","distractor","target","R","cookie_neg","Y","11/11/2015","11:07",1883,6.71,6,"M",100
"445","111115_1",1,5,5,"car_pos","car_neg","car_pos","negation","positive","distractor","target","R","car_pos","Y","11/11/2015","11:07",1259,6.71,6,"M",100
"446","111115_1",1,5,29,"flower_control","flower_foil","flower_control","implicature","unambiguous","distractor","target","R","flower_control","Y","11/11/2015","11:07",966,6.71,6,"M",100
"447","111115_1",1,5,48,"apple_pos","apple_neg","apple_pos","negation","positive","distractor","target","L","apple_neg","N","11/11/2015","11:07",2411,6.71,6,"M",100
"448","111115_1",1,5,68,"bird_pos","bird_pos","bird_inhib","inhibition","control","target","distractor","L","bird_pos","Y","11/11/2015","11:07",628,6.71,6,"M",100
"449","111115_1",1,5,34,"cookie_control","cookie_foil","cookie_control","implicature","unambiguous","distractor","target","R","cookie_control","Y","11/11/2015","11:07",810,6.71,6,"M",100
"450","111115_1",1,5,67,"bird_pos","bird_inhib","bird_pos","inhibition","control","distractor","target","R","bird_pos","Y","11/11/2015","11:07",511,6.71,6,"M",100
"451","111115_1",1,5,26,"banana_pos","banana_inhib","banana_pos","inhibition","control","distractor","target","R","banana_pos","Y","11/11/2015","11:07",952,6.71,6,"M",100
"452","111115_1",1,5,26,"banana_implic","banana_implic","banana_control","implicature","implicature","target","distractor","R","banana_control","N","11/11/2015","11:07",979,6.71,6,"M",100
"453","111115_1",1,5,15,"flower_implic","flower_implic","flower_control","implicature","implicature","target","distractor","L","flower_implic","Y","11/11/2015","11:07",1397,6.71,6,"M",100
"454","111115_1",1,5,16,"bird_implic","bird_implic","bird_control","implicature","implicature","target","distractor","R","bird_control","N","11/11/2015","11:07",1275,6.71,6,"M",100
"455","111115_1",1,5,53,"cookie_pos","cookie_pos","cookie_inhib","inhibition","control","target","distractor","L","cookie_pos","Y","11/11/2015","11:07",923,6.71,6,"M",100
"456","111115_1",1,5,51,"flower_inhib","flower_inhib","flower_pos","inhibition","inhib","target","distractor","L","flower_inhib","Y","11/11/2015","11:07",1140,6.71,6,"M",100
"457","111115_1",1,5,54,"cookie_pos","cookie_pos","cookie_inhib","inhibition","control","target","distractor","L","cookie_pos","Y","11/11/2015","11:07",739,6.71,6,"M",100
"458","111115_1",1,5,52,"cookie_pos","cookie_inhib","cookie_pos","inhibition","control","distractor","target","R","cookie_pos","Y","11/11/2015","11:07",1091,6.71,6,"M",100
"459","111115_1",1,5,47,"flower_pos","flower_inhib","flower_pos","inhibition","control","distractor","target","R","flower_pos","Y","11/11/2015","11:07",370,6.71,6,"M",100
"460","111115_1",1,5,66,"bird_pos","bird_pos","bird_inhib","inhibition","control","target","distractor","L","bird_pos","Y","11/11/2015","11:07",837,6.71,6,"M",100
"461","111115_1",1,5,28,"bird_neg","bird_neg","bird_pos","negation","negative","target","distractor","L","bird_neg","Y","11/11/2015","11:07",4422,6.71,6,"M",100
"462","111115_1",1,5,6,"cup_pos","cup_pos","cup_neg","negation","positive","target","distractor","L","cup_pos","Y","11/11/2015","11:07",1091,6.71,6,"M",100
"463","111115_1",1,5,36,"lamp_neg","lamp_neg","lamp_pos","negation","negative","target","distractor","L","lamp_neg","Y","11/11/2015","11:07",1272,6.71,6,"M",100
"464","111115_1",1,5,22,"teddybear_pos","teddybear_pos","teddybear_inhib","inhibition","control","target","distractor","L","teddybear_pos","Y","11/11/2015","11:07",839,6.71,6,"M",100
"465","111115_1",1,5,14,"dog_implic","dog_implic","dog_control","implicature","implicature","target","distractor","L","dog_implic","Y","11/11/2015","11:07",1851,6.71,6,"M",100
"466","111115_1",1,5,39,"cat_pos","cat_neg","cat_pos","negation","positive","distractor","target","R","cat_pos","Y","11/11/2015","11:07",1412,6.71,6,"M",100
"467","111115_1",1,5,23,"teddybear_pos","teddybear_inhib","teddybear_pos","inhibition","control","distractor","target","R","teddybear_pos","Y","11/11/2015","11:07",832,6.71,6,"M",100
"468","111115_1",1,5,43,"bicycle_pos","bicycle_pos","bicycle_neg","negation","positive","target","distractor","L","bicycle_pos","Y","11/11/2015","11:07",1184,6.71,6,"M",100
"469","111115_1",1,5,44,"bird_neg","bird_neg","bird_pos","negation","negative","target","distractor","R","bird_pos","N","11/11/2015","11:07",562,6.71,6,"M",100
"470","111115_1",1,5,45,"dog_pos","dog_pos","dog_neg","negation","positive","target","distractor","L","dog_pos","Y","11/11/2015","11:07",4292,6.71,6,"M",100
"471","111115_1",1,5,30,"teddybear_implic","teddybear_implic","teddybear_control","implicature","implicature","target","distractor","R","teddybear_control","N","11/11/2015","11:07",876,6.71,6,"M",100
"472","111115_1",1,5,4,"cookie_neg","cookie_neg","cookie_pos","negation","negative","target","distractor","L","cookie_neg","Y","11/11/2015","11:07",1687,6.71,6,"M",100
"473","111115_1",1,5,30,"cookie_pos","cookie_neg","cookie_pos","negation","positive","distractor","target","R","cookie_pos","Y","11/11/2015","11:07",805,6.71,6,"M",100
"474","111115_1",1,5,43,"cat_pos","cat_inhib","cat_pos","inhibition","control","distractor","target","R","cat_pos","Y","11/11/2015","11:07",579,6.71,6,"M",100
"475","111115_1",1,5,5,"cookie_control","cookie_foil","cookie_control","implicature","unambiguous","distractor","target","R","cookie_control","Y","11/11/2015","11:07",1217,6.71,6,"M",100
"476","111115_1",1,5,28,"banana_pos","banana_inhib","banana_pos","inhibition","control","distractor","target","R","banana_pos","Y","11/11/2015","11:07",669,6.71,6,"M",100
"477","111115_1",1,5,53,"dog_neg","dog_neg","dog_pos","negation","negative","target","distractor","L","dog_neg","Y","11/11/2015","11:07",1305,6.71,6,"M",100
"478","111115_1",1,5,62,"lamp_pos","lamp_inhib","lamp_pos","inhibition","control","distractor","target","R","lamp_pos","Y","11/11/2015","11:07",828,6.71,6,"M",100
"479","111115_1",1,5,12,"car_inhib","car_inhib","car_pos","inhibition","inhib","target","distractor","R","car_pos","N","11/11/2015","11:07",630,6.71,6,"M",100
"480","111115_1",1,5,8,"car_pos","car_pos","car_inhib","inhibition","control","target","distractor","L","car_pos","Y","11/11/2015","11:07",808,6.71,6,"M",100
"481","111115_1",1,5,56,"cookie_pos","cookie_inhib","cookie_pos","inhibition","control","distractor","target","R","cookie_pos","Y","11/11/2015","11:07",781,6.71,6,"M",100
"482","111115_1",1,5,57,"teddybear_implic","teddybear_implic","teddybear_control","implicature","implicature","target","distractor","R","teddybear_control","N","11/11/2015","11:07",912,6.71,6,"M",100
"483","111115_1",1,5,50,"flower_pos","flower_inhib","flower_pos","inhibition","control","distractor","target","R","flower_pos","Y","11/11/2015","11:07",646,6.71,6,"M",100
"484","111115_1",1,5,48,"flower_pos","flower_inhib","flower_pos","inhibition","control","distractor","target","R","flower_pos","Y","11/11/2015","11:07",468,6.71,6,"M",100
"485","111115_1",1,5,46,"flower_pos","flower_inhib","flower_pos","inhibition","control","distractor","target","R","flower_pos","Y","11/11/2015","11:07",536,6.71,6,"M",100
"486","111115_1",1,5,3,"teddybear_pos","teddybear_neg","teddybear_pos","negation","positive","distractor","target","R","teddybear_pos","Y","11/11/2015","11:07",1043,6.71,6,"M",100
"487","111115_1",1,5,4,"cat_implic","cat_implic","cat_control","implicature","implicature","target","distractor","L","cat_implic","Y","11/11/2015","11:07",2603,6.71,6,"M",100
"488","111115_1",1,5,26,"banana_pos","banana_pos","banana_neg","negation","positive","target","distractor","L","banana_pos","Y","11/11/2015","11:07",957,6.71,6,"M",100
"489","111115_1",1,5,2,"apple_pos","apple_pos","apple_inhib","inhibition","control","target","distractor","L","apple_pos","Y","11/11/2015","11:07",1225,6.71,6,"M",100
"490","111115_1",1,5,7,"bicycle_neg","bicycle_pos","bicycle_neg","negation","negative","distractor","target","R","bicycle_neg","Y","11/11/2015","11:07",1346,6.71,6,"M",100
"491","111115_1",1,5,58,"cat_pos","cat_neg","cat_pos","negation","positive","distractor","target","R","cat_pos","Y","11/11/2015","11:07",664,6.71,6,"M",100
"492","111115_1",1,5,1,"banana_control","banana_control","banana_foil","implicature","unambiguous","target","distractor","L","banana_control","Y","11/11/2015","11:07",4707,6.71,6,"M",100
"493","111115_1",1,5,2,"cup_implic","cup_control","cup_implic","implicature","implicature","distractor","target","R","cup_implic","Y","11/11/2015","11:07",1546,6.71,6,"M",100
"494","111115_1",1,5,40,"car_neg","car_neg","car_pos","negation","negative","target","distractor","L","car_neg","Y","11/11/2015","11:07",915,6.71,6,"M",100
"495","111115_1",1,5,27,"apple_implic","apple_control","apple_implic","implicature","implicature","distractor","target","L","apple_control","N","11/11/2015","11:07",970,6.71,6,"M",100
"496","111115_1",1,5,28,"cat_control","cat_foil","cat_control","implicature","unambiguous","distractor","target","R","cat_control","Y","11/11/2015","11:07",2273,6.71,6,"M",100
"497","111115_1",1,5,25,"teddybear_inhib","teddybear_pos","teddybear_inhib","inhibition","inhib","distractor","target","R","teddybear_inhib","Y","11/11/2015","11:07",974,6.71,6,"M",100
"498","111115_1",1,5,24,"teddybear_pos","teddybear_inhib","teddybear_pos","inhibition","control","distractor","target","R","teddybear_pos","Y","11/11/2015","11:07",794,6.71,6,"M",100
"499","111115_1",1,5,44,"cat_inhib","cat_pos","cat_inhib","inhibition","inhib","distractor","target","R","cat_inhib","Y","11/11/2015","11:07",1022,6.71,6,"M",100
"500","111115_1",1,5,23,"banana_pos","banana_pos","banana_neg","negation","positive","target","distractor","L","banana_pos","Y","11/11/2015","11:07",3966,6.71,6,"M",100
"501","111115_1",1,5,1,"apple_pos","apple_pos","apple_inhib","inhibition","control","target","distractor","L","apple_pos","Y","11/11/2015","11:07",2022,6.71,6,"M",100
"502","111115_1",1,5,41,"car_control","car_foil","car_control","implicature","unambiguous","distractor","target","R","car_control","Y","11/11/2015","11:07",628,6.71,6,"M",100
"503","111115_1",1,5,3,"apple_pos","apple_inhib","apple_pos","inhibition","control","distractor","target","R","apple_pos","Y","11/11/2015","11:07",1137,6.71,6,"M",100
"504","111115_1",1,5,29,"banana_pos","banana_inhib","banana_pos","inhibition","control","distractor","target","R","banana_pos","Y","11/11/2015","11:07",714,6.71,6,"M",100
"505","111115_1",1,5,35,"lamp_implic","lamp_implic","lamp_control","implicature","implicature","target","distractor","L","lamp_implic","Y","11/11/2015","11:07",977,6.71,6,"M",100
"506","111115_1",1,5,11,"car_pos","car_pos","car_inhib","inhibition","control","target","distractor","L","car_pos","Y","11/11/2015","11:07",697,6.71,6,"M",100
"507","111115_1",1,5,53,"cookie_implic","cookie_implic","cookie_control","implicature","implicature","target","distractor","L","cookie_implic","Y","11/11/2015","11:07",1148,6.71,6,"M",100
"508","111115_1",1,5,13,"dog_pos","dog_pos","dog_inhib","inhibition","control","target","distractor","L","dog_pos","Y","11/11/2015","11:07",2741,6.71,6,"M",100
"509","111115_1",1,5,56,"bird_control","bird_foil","bird_control","implicature","unambiguous","distractor","target","R","bird_control","Y","11/11/2015","11:07",1145,6.71,6,"M",100
"510","111115_1",1,5,45,"flower_pos","flower_inhib","flower_pos","inhibition","control","distractor","target","R","flower_pos","Y","11/11/2015","11:07",1221,6.71,6,"M",100
"511","111115_1",1,5,54,"dog_control","dog_foil","dog_control","implicature","unambiguous","distractor","target","L","dog_foil","N","11/11/2015","11:07",1403,6.71,6,"M",100
"512","111115_1",1,5,65,"bird_pos","bird_inhib","bird_pos","inhibition","control","distractor","target","R","bird_pos","Y","11/11/2015","11:07",956,6.71,6,"M",100
"513","111115_1",1,5,39,"banana_implic","banana_control","banana_implic","implicature","implicature","distractor","target","R","banana_implic","Y","11/11/2015","11:07",1090,6.71,6,"M",100
"514","111115_1",1,5,31,"banana_inhib","banana_inhib","banana_pos","inhibition","inhib","target","distractor","R","banana_pos","N","11/11/2015","11:07",827,6.71,6,"M",100
"515","111115_1",1,5,9,"apple_pos","apple_pos","apple_neg","negation","positive","target","distractor","L","apple_pos","Y","11/11/2015","11:07",1190,6.71,6,"M",100
"516","111115_1",1,5,42,"cat_control","cat_control","cat_foil","implicature","unambiguous","target","distractor","L","cat_control","Y","11/11/2015","11:07",1095,6.71,6,"M",100
"517","111115_1",1,5,69,"bird_pos","bird_inhib","bird_pos","inhibition","control","distractor","target","R","bird_pos","Y","11/11/2015","11:07",614,6.71,6,"M",100
"518","111115_1",1,5,70,"bird_inhib","bird_pos","bird_inhib","inhibition","inhib","distractor","target","R","bird_inhib","Y","11/11/2015","11:07",1275,6.71,6,"M",100
"519","111115_1",1,5,56,"lamp_pos","lamp_neg","lamp_pos","negation","positive","distractor","target","R","lamp_pos","Y","11/11/2015","11:07",1744,6.71,6,"M",100
"520","111115_1",1,5,57,"bicycle_neg","bicycle_neg","bicycle_pos","negation","negative","target","distractor","L","bicycle_neg","Y","11/11/2015","11:07",1075,6.71,6,"M",100
"521","111115_1",1,5,2,"cat_pos","cat_neg","cat_pos","negation","positive","distractor","target","R","cat_pos","Y","11/11/2015","11:07",1024,6.71,6,"M",100
"522","111115_1",1,5,41,"lamp_pos","lamp_neg","lamp_pos","negation","positive","distractor","target","R","lamp_pos","Y","11/11/2015","11:07",890,6.71,6,"M",100
"523","111115_1",1,5,42,"cup_neg","cup_pos","cup_neg","negation","negative","distractor","target","R","cup_neg","Y","11/11/2015","11:07",1162,6.71,6,"M",100
"524","111115_1",1,5,64,"lamp_inhib","lamp_inhib","lamp_pos","inhibition","inhib","target","distractor","L","lamp_inhib","Y","11/11/2015","11:07",1491,6.71,6,"M",100
"525","111115_1",1,5,25,"car_pos","car_neg","car_pos","negation","positive","distractor","target","R","car_pos","Y","11/11/2015","11:07",1162,6.71,6,"M",100
"526","111115_1",1,5,21,"teddybear_pos","teddybear_neg","teddybear_pos","negation","positive","distractor","target","R","teddybear_pos","Y","11/11/2015","11:07",1974,6.71,6,"M",100
"527","111115_1",1,5,20,"cup_pos","cup_neg","cup_pos","negation","positive","distractor","target","R","cup_pos","Y","11/11/2015","11:07",1634,6.71,6,"M",100
"528","111115_1",1,5,19,"bird_pos","bird_neg","bird_pos","negation","positive","distractor","target","R","bird_pos","Y","11/11/2015","11:07",1456,6.71,6,"M",100
"529","111115_1",1,5,33,"bicycle_pos","bicycle_pos","bicycle_inhib","inhibition","control","target","distractor","L","bicycle_pos","Y","11/11/2015","11:07",955,6.71,6,"M",100
"530","111115_1",1,5,6,"teddybear_control","teddybear_foil","teddybear_control","implicature","unambiguous","distractor","target","R","teddybear_control","Y","11/11/2015","11:07",1389,6.71,6,"M",100
"531","111115_1",1,5,7,"dog_control","dog_control","dog_foil","implicature","unambiguous","target","distractor","L","dog_control","Y","11/11/2015","11:07",1562,6.71,6,"M",100
"532","111115_1",1,5,71,"cup_pos","cup_inhib","cup_pos","inhibition","control","distractor","target","R","cup_pos","Y","11/11/2015","11:07",761,6.71,6,"M",100
"533","111115_1",1,5,10,"car_pos","car_pos","car_inhib","inhibition","control","target","distractor","L","car_pos","Y","11/11/2015","11:07",609,6.71,6,"M",100
"534","111115_1",1,5,7,"car_pos","car_pos","car_inhib","inhibition","control","target","distractor","L","car_pos","Y","11/11/2015","11:07",1109,6.71,6,"M",100
"535","111115_1",1,5,52,"banana_implic","banana_control","banana_implic","implicature","implicature","distractor","target","R","banana_implic","Y","11/11/2015","11:07",1370,6.71,6,"M",100
"536","111115_1",1,5,55,"apple_implic","apple_control","apple_implic","implicature","implicature","distractor","target","R","apple_implic","Y","11/11/2015","11:07",2412,6.71,6,"M",100
"537","111115_1",1,5,3,"apple_control","apple_foil","apple_control","implicature","unambiguous","distractor","target","R","apple_control","Y","11/11/2015","11:07",1351,6.71,6,"M",100
"538","111115_1",1,5,40,"lamp_control","lamp_control","lamp_foil","implicature","unambiguous","target","distractor","L","lamp_control","Y","11/11/2015","11:07",777,6.71,6,"M",100
"539","111115_1",1,5,5,"apple_pos","apple_pos","apple_inhib","inhibition","control","target","distractor","L","apple_pos","Y","11/11/2015","11:07",614,6.71,6,"M",100
"540","111115_1",1,5,41,"cat_pos","cat_inhib","cat_pos","inhibition","control","distractor","target","R","cat_pos","Y","11/11/2015","11:07",686,6.71,6,"M",100
"541","111115_1",1,5,16,"cat_neg","cat_neg","cat_pos","negation","negative","target","distractor","L","cat_neg","Y","11/11/2015","11:07",1429,6.71,6,"M",100
"542","111115_1",1,5,17,"lamp_neg","lamp_pos","lamp_neg","negation","negative","distractor","target","R","lamp_neg","Y","11/11/2015","11:07",1912,6.71,6,"M",100
"543","111115_1",1,5,43,"flower_implic","flower_implic","flower_control","implicature","implicature","target","distractor","R","flower_control","N","11/11/2015","11:07",1001,6.71,6,"M",100
"544","111115_1",1,5,44,"bicycle_implic","bicycle_control","bicycle_implic","implicature","implicature","distractor","target","L","bicycle_control","N","11/11/2015","11:07",754,6.71,6,"M",100
"545","111115_1",1,5,45,"teddybear_control","teddybear_control","teddybear_foil","implicature","unambiguous","target","distractor","R","teddybear_foil","N","11/11/2015","11:07",622,6.71,6,"M",100
"546","111115_1",1,5,36,"dog_control","dog_foil","dog_control","implicature","unambiguous","distractor","target","R","dog_control","Y","11/11/2015","11:07",2019,6.71,6,"M",100
"547","111115_1",1,5,54,"banana_neg","banana_neg","banana_pos","negation","negative","target","distractor","R","banana_pos","N","11/11/2015","11:07",795.000000000001,6.71,6,"M",100
"548","111115_1",1,5,59,"flower_neg","flower_neg","flower_pos","negation","negative","target","distractor","L","flower_neg","Y","11/11/2015","11:07",904,6.71,6,"M",100
"549","111115_1",1,5,38,"flower_neg","flower_neg","flower_pos","negation","negative","target","distractor","L","flower_neg","Y","11/11/2015","11:07",545,6.71,6,"M",100
"550","111115_1",1,5,63,"lamp_pos","lamp_inhib","lamp_pos","inhibition","control","distractor","target","R","lamp_pos","Y","11/11/2015","11:07",550,6.71,6,"M",100
"551","111115_1",1,5,38,"bird_control","bird_foil","bird_control","implicature","unambiguous","distractor","target","R","bird_control","Y","11/11/2015","11:07",809,6.71,6,"M",100
"552","111115_1",1,5,40,"cat_pos","cat_pos","cat_inhib","inhibition","control","target","distractor","L","cat_pos","Y","11/11/2015","11:07",776,6.71,6,"M",100
"553","111115_1",1,5,13,"flower_neg","flower_pos","flower_neg","negation","negative","distractor","target","R","flower_neg","Y","11/11/2015","11:07",1400,6.71,6,"M",100
"554","111115_1",1,5,36,"bicycle_pos","bicycle_pos","bicycle_inhib","inhibition","control","target","distractor","L","bicycle_pos","Y","11/11/2015","11:07",617,6.71,6,"M",100
"555","111115_1",1,5,14,"bicycle_neg","bicycle_pos","bicycle_neg","negation","negative","distractor","target","L","bicycle_pos","N","11/11/2015","11:07",845.000000000001,6.71,6,"M",100
"556","111115_1",1,5,34,"bicycle_pos","bicycle_pos","bicycle_inhib","inhibition","control","target","distractor","L","bicycle_pos","Y","11/11/2015","11:07",1224,6.71,6,"M",100
"557","111115_1",1,5,35,"bicycle_pos","bicycle_inhib","bicycle_pos","inhibition","control","distractor","target","R","bicycle_pos","Y","11/11/2015","11:07",690,6.71,6,"M",100
"558","111115_1",1,5,55,"bird_pos","bird_pos","bird_neg","negation","positive","target","distractor","L","bird_pos","Y","11/11/2015","11:07",1382,6.71,6,"M",100
"559","111115_1",1,5,13,"bicycle_control","bicycle_foil","bicycle_control","implicature","unambiguous","distractor","target","R","bicycle_control","Y","11/11/2015","11:07",929,6.71,6,"M",100
"560","111115_1",1,5,9,"car_pos","car_inhib","car_pos","inhibition","control","distractor","target","R","car_pos","Y","11/11/2015","11:07",645,6.71,6,"M",100
"561","111115_1",1,5,50,"car_implic","car_implic","car_control","implicature","implicature","target","distractor","R","car_control","N","11/11/2015","11:07",829,6.71,6,"M",100
"562","111115_1",1,5,74,"cup_pos","cup_pos","cup_inhib","inhibition","control","target","distractor","L","cup_pos","Y","11/11/2015","11:07",577,6.71,6,"M",100
"563","111115_1",1,5,60,"cookie_neg","cookie_pos","cookie_neg","negation","negative","distractor","target","R","cookie_neg","Y","11/11/2015","11:07",782,6.71,6,"M",100
"564","111115_1",1,5,8,"lamp_pos","lamp_pos","lamp_neg","negation","positive","target","distractor","L","lamp_pos","Y","11/11/2015","11:07",949,6.71,6,"M",100
"565","111115_1",1,5,32,"bicycle_pos","bicycle_inhib","bicycle_pos","inhibition","control","distractor","target","R","bicycle_pos","Y","11/11/2015","11:07",2232,6.71,6,"M",100
"566","111115_1",1,5,37,"cookie_control","cookie_control","cookie_foil","implicature","unambiguous","target","distractor","L","cookie_control","Y","11/11/2015","11:07",774,6.71,6,"M",100
"567","111115_1",1,5,75,"cup_pos","cup_pos","cup_inhib","inhibition","control","target","distractor","L","cup_pos","Y","11/11/2015","11:07",478,6.71,6,"M",100
"568","111115_1",1,5,37,"bicycle_inhib","bicycle_inhib","bicycle_pos","inhibition","inhib","target","distractor","L","bicycle_inhib","Y","11/11/2015","11:07",1080,6.71,6,"M",100
"569","111115_1",1,5,72,"cup_pos","cup_pos","cup_inhib","inhibition","control","target","distractor","L","cup_pos","Y","11/11/2015","11:07",1329,6.71,6,"M",100
"570","111115_1",1,5,15,"cookie_neg","cookie_pos","cookie_neg","negation","negative","distractor","target","L","cookie_pos","N","11/11/2015","11:07",1607,6.71,6,"M",100
"571","111115_1",1,5,24,"car_neg","car_pos","car_neg","negation","negative","distractor","target","R","car_neg","Y","11/11/2015","11:07",1032,6.71,6,"M",100
"572","111115_1",1,5,30,"banana_pos","banana_pos","banana_inhib","inhibition","control","target","distractor","L","banana_pos","Y","11/11/2015","11:07",874,6.71,6,"M",100
"573","111115_1",1,5,22,"dog_pos","dog_pos","dog_neg","negation","positive","target","distractor","L","dog_pos","Y","11/11/2015","11:07",1272,6.71,6,"M",100
"574","111115_1",1,5,12,"bird_control","bird_foil","bird_control","implicature","unambiguous","distractor","target","R","bird_control","Y","11/11/2015","11:07",939,6.71,6,"M",100
"575","111115_1",1,5,73,"cup_pos","cup_pos","cup_inhib","inhibition","control","target","distractor","L","cup_pos","Y","11/11/2015","11:07",1132,6.71,6,"M",100
"576","111115_1",1,5,6,"apple_inhib","apple_inhib","apple_pos","inhibition","inhib","target","distractor","L","apple_inhib","Y","11/11/2015","11:07",1203,6.71,6,"M",100
"577","111115_1",1,5,76,"cup_pos","cup_pos","cup_inhib","inhibition","control","target","distractor","L","cup_pos","Y","11/11/2015","11:07",1027,6.71,6,"M",100
"578","111115_1",1,5,49,"lamp_implic","lamp_implic","lamp_control","implicature","implicature","target","distractor","L","lamp_implic","Y","11/11/2015","11:07",1387,6.71,6,"M",100
"579","111115_1",1,5,51,"flower_implic","flower_implic","flower_control","implicature","implicature","target","distractor","L","flower_implic","Y","11/11/2015","11:07",1578,6.71,6,"M",100
"580","111115_1",1,5,11,"flower_control","flower_control","flower_foil","implicature","unambiguous","target","distractor","L","flower_control","Y","11/11/2015","11:07",984,6.71,6,"M",100
"581","111115_1",1,5,18,"apple_neg","apple_pos","apple_neg","negation","negative","distractor","target","R","apple_neg","Y","11/11/2015","11:07",1464,6.71,6,"M",100
"582","111115_1",1,5,42,"cat_pos","cat_inhib","cat_pos","inhibition","control","distractor","target","R","cat_pos","Y","11/11/2015","11:07",695,6.71,6,"M",100
